timestep,x,y,z,qx,qy,qz,qw,roll,yaw,pitch,roll_a,pitch_a,yaw_a,acc_x,acc_y,acc_z,c_x,c_y,c_z
1701864891.3651097,-4.108913258505274,-3.9230949746404984,0.06676436976855962,0.026147546487803607,0.0009610397882624832,0.9989839690380315,-0.036693484710704966,1.2391863565479507e-06,-0.052336376463439624,-3.0681640875751865,-5.178532533728084e-06,-0.9905558223450472,3.709972523040894e-07,-1.2177578187153322,0.0017777404610994688,9.969352432342932,-0.07326214832319229,-0.9973053291646213,0.0038390158787091873
1701864891.3789365,-4.10814056923838,-3.9230381383066515,0.0660825361733282,0.03190141562724516,0.0011723647914951886,0.9988167821141745,-0.03668734126179183,1.2014620676860378e-06,-0.06385674959647598,-3.068164098590906,-4.768971123300694e-06,-1.4320992655324571,3.805624668498301e-07,-1.1257770842674149,0.0012021606558866476,9.888563998182283,-0.07321306409389453,-0.9973053291038732,0.004682711500712362
1701864891.3934305,-4.107138540764436,-3.922964431535467,0.06518030097031406,0.03942132831084607,0.001448559920780947,0.9985482579213892,-0.03667747470209684,1.1680624289537273e-06,-0.07891634334873579,-3.068164113232979,-4.28169476942832e-06,-1.8720749733742905,4.024099734168247e-07,-0.9349439951118206,0.0010963325735055059,9.83195070575476,-0.07313424862503919,-0.997305329047266,0.005784663514469343
1701864891.4054139,-4.107609201860347,-3.922998436033928,0.0655954211001413,0.03588493328032588,0.0013187269911286066,0.9986816799858812,-0.03668016607333676,1.4500890655383595e-06,-0.07183375531011331,-3.068168537751915,-6.359398791152564e-06,0.8804314948884969,-0.0005496008387176375,15.094195606347784,-0.01182188028049655,11.255201733698788,-0.07316897489237893,-0.9973056527519106,0.005266507598392012
1701864891.415529,-4.107830552330189,-3.9230147210871484,0.06579659874748874,0.034192640331387955,0.0012565432314324571,0.9987410523837674,-0.036682349020212016,1.3931474948831267e-06,-0.0684448010300572,-3.0681685287774174,-7.000152707495897e-06,0.4212771450131105,5.139720676472014e-07,-3.553643572903391,0.013622445583066006,6.91682958387515,-0.07318640666716399,-0.9973056527389338,0.005018455351770203
1701864891.4273567,-4.107815097365274,-3.9230135887919895,0.06578162458452358,0.03431039813621966,0.0012608337653722144,0.9987370138879688,-0.03668220233428574,1.323887647824869e-06,-0.06868061145448925,-3.06816852327816,-8.562773311955763e-06,-0.02931330420486198,7.218224635828322e-07,-0.8968017264257149,0.0009012181542742087,10.06740203933951,-0.07318522702741061,-0.9973056526602453,0.005035644632879357
1701864891.4376292,-4.107562610219938,-3.922995020551159,0.06555158615911674,0.03622699173508462,0.0013312005164472303,0.9986693303415878,-0.03667971660326397,1.2700141795943516e-06,-0.0725187729277705,-3.068168523487297,-6.698778527901046e-06,-0.47711772168689026,5.928654209521577e-07,-0.8973645392664125,0.0008001217422298605,10.000695434162214,-0.07316536525438755,-0.9973056525901787,0.005316449837084842
1701864891.4492457,-4.107678651839816,-3.9230035182733256,0.06565369750148006,0.035346404954789835,0.0012988630252682085,0.9987008901496366,-0.036680739168356846,1.2900254506771848e-06,-0.0707552810622262,-3.0681687962254607,6.088882211415593e-08,0.21921756339136908,-3.409740445080927e-05,4.707738224061902,-5.3511670974175536e-05,10.543051420821481,-0.07317435344062538,-0.9973056726578091,0.005187415840407142
1701864891.4581575,-4.107693579942037,-3.923004618903733,0.06566662237090759,0.03523283273714424,0.0012946721862304336,0.9987049032772144,-0.03668088727521007,1.2508988211089073e-06,-0.07052784018186839,-3.068168793276551,-4.8379093175521195e-06,0.028272896453898348,3.2974143068241065e-07,-0.571340977835769,0.0014291849183465286,9.026359635633446,-0.07317553401944837,-0.9973056726652672,0.0051707340530849685
1701864891.4703338,-4.107703960246831,-3.9230053840170185,0.06567515867759044,0.03515382072132746,0.001291758269947433,0.9987076875762025,-0.03668098997381187,1.226975197732917e-06,-0.0703696105730048,-3.068168791464208,-2.9580579424062427e-06,0.019669328268260056,2.0036226647475889e-07,0.9983282943028708,0.0006161439138380775,9.977681479622902,-0.073176352872229,-0.9973056726702263,0.005159131720213657
1701864891.4801342,-4.10771222784664,-3.9230059933623838,0.06568192782651307,0.03509088558696209,0.00128943758417446,0.9987099008656746,-0.03668107158077242,1.2085720487934268e-06,-0.07024357689580561,-3.068168790107694,-2.27582703087929e-06,0.01566709154878078,1.491310401112047e-07,0.8577026237149187,0.000560575627251809,9.798487922555536,-0.07317700371068427,-0.9973056726768056,0.0051498907358228
1701864891.491985,-4.107718835406218,-3.923006480337835,0.06568733582668008,0.035040584360227195,0.0012875829158143287,0.9987116669935048,-0.03668113669154204,1.19416761172817e-06,-0.070142844049095,-3.068168789054138,-1.7814124792876548e-06,0.012521976393137933,1.1560015183785582e-07,0.840704839016334,0.0005167293714860102,9.793808322095531,-0.07317752302928836,-0.9973056726825027,0.005142505089828581
1701864891.5099018,-4.107724116825606,-3.9230068695579106,0.06569165825717103,0.03500037683934235,0.001286100558178914,0.9987130768968965,-0.03668118866111042,1.1829413897184475e-06,-0.07006232491802317,-3.0681687882406066,-1.388434255166261e-06,0.010009234237824577,8.898420453751681e-08,0.8274740489603862,0.0004761812819888142,9.792540795473498,-0.07317793757556718,-0.9973056726875246,0.005136601743423109
1701864891.5210264,-4.1077283384048,-3.923007180652802,0.06569511391909279,0.034968236747425295,0.0012849157703097264,0.9987142027451142,-0.03668123015153715,1.1742536068881051e-06,-0.06999796162203206,-3.0681687876187986,-1.0745589687788145e-06,0.008000922230423684,6.767684450066722e-08,0.8154638486341959,0.00043898997400800845,9.791549230976528,-0.07317826857529157,-0.9973056726920664,0.005131883138530498
1701864891.5307019,-4.107731712966576,-3.923007429310598,0.06569787749825677,0.034942544489017235,0.0012839688124199505,0.9987151019849307,-0.036681263281833326,1.167593675381391e-06,-0.06994651072931998,-3.0681687871503387,-8.238164837299462e-07,0.006395797245695362,5.060219886945359e-08,0.8045132825732644,0.00040468847142325276,9.790737744805027,-0.07317853292420354,-0.9973056726962751,0.005128111435160552
1701864891.5427327,-4.1077344106034985,-3.9230076280695414,0.06570008849627013,0.0349220055033614,0.001283211933950715,0.9987158203822318,-0.036681289740157025,1.1625537325972503e-06,-0.06990537973929015,-3.0681687868046743,-6.235068857747995e-07,0.005112942824852402,3.690715572821902e-08,0.794517750373752,0.0003732187538020599,9.79007041654683,-0.07317874408259972,-0.9973056727002626,0.005125096523032033
1701864891.5517337,-4.107736567257078,-3.923007786950445,0.06570185832625691,0.0349055850578691,0.0012826069683369442,0.9987163944202702,-0.03668131087226895,1.1588079749603102e-06,-0.06987249649271622,-3.0681687865574645,-4.634845649058143e-07,0.004087675971258751,2.5910832960999585e-08,0.7853856166586376,0.00034427815922610577,9.789519307103511,-0.07317891278066481,-0.9973056727041135,0.0051226864471238176
1701864891.5607455,-4.107738291574727,-3.9230079139621505,0.06570327597374545,0.03489245611232291,0.0012821234099099548,0.9987168531973397,-0.036681327751525376,1.156096144984373e-06,-0.06984620476022187,-3.0681687863893057,-3.3564512685713087e-07,0.0032682929562578397,1.7069723896947144e-08,0.7770354808505096,0.00031758153266291784,9.78906210143216,-0.07317904757658562,-0.9973056727078939,0.005120759752135491
1701864891.5699055,-4.107739670390113,-3.9230080155055136,0.06570441251464233,0.03488195763798544,0.0012817368764397184,0.9987172199312322,-0.03668134123437084,1.1542103242561405e-06,-0.06982518076952655,-3.0681687862847222,-2.335168844246503e-07,0.00261346644672778,9.950047040644912e-09,0.7693944759464014,0.0002931296352940644,9.788680958692531,-0.07317915529902541,-0.9973056727116546,0.00511921936192606
1701864891.582466,-4.107740773103075,-3.9230080966962664,0.06570532472183618,0.0348735612981743,0.0012814278801272657,0.9987175131537945,-0.03668135200440005,1.1529844283627695e-06,-0.0698083664784578,-3.068168786231366,-1.5192691895639144e-07,0.0020901638594651183,4.2052598846706264e-09,0.7623980051574861,0.0002705346043791552,9.78836159644723,-0.07317924139845314,-0.9973056727154348,0.005117987686703987
1701864891.5907743,-4.107741655180093,-3.923008161623057,0.0657060579447419,0.034866844814343115,0.0012811808451730512,0.9987177476606317,-0.036681360607387685,1.1522857640248443e-06,-0.0697949162370221,-3.0681687862193825,-8.674620941604456e-08,0.001671982983681495,-4.411693019116051e-10,0.7559877081028976,0.00024982768446648327,9.788092574588775,-0.07317931022645979,-0.9973056727192655,0.0051170027118278396
1701864891.602941,-4.107742360951835,-3.9230082135536652,0.06570664840864926,0.03486147067723352,0.0012809833225302114,0.9987179352669131,-0.03668136747916829,1.1520083288934072e-06,-0.06978415415391781,-3.0681687862409044,-3.467418132774977e-08,0.0013378213250100687,-4.210207579765283e-09,0.7501115042387412,0.00023078225941420354,9.787864711425186,-0.07317936525805087,-0.9973056727231713,0.005116214871529152
1701864891.6119545,-4.10774292584896,-3.923008255099815,0.06570712505095491,0.034857169130751,0.0012808253622518992,0.998718085409379,-0.036681372967842546,1.1520674425847896e-06,-0.0697755400198406,-3.06816878628965,6.92586464503472e-09,0.0010708124210905357,-7.27833348520039e-09,0.7447225233090892,0.0002131837139136372,9.787670627439141,-0.07317940926870418,-0.997305672727171,0.0051155845500404735
1701864891.623329,-4.107743378189004,-3.9230082883488957,0.0657075109876653,0.03485372457124474,0.0012806990118106774,0.9987182056261674,-0.03668137735147618,1.1523954400772934e-06,-0.06976864207061165,-3.0681687863606006,4.0158087100625535e-08,0.0008574755916462995,-9.786373439564187e-09,0.7397781337383578,0.0001970994248754396,9.787504382179575,-0.07317944447549263,-0.9973056727312796,0.005115080084250021
1701864891.632762,-4.107743740604462,-3.9230083149692287,0.0657078246846895,0.03485096467691058,0.0012805979151452966,0.9987183019394624,-0.0366813808522149,1.1529382760387782e-06,-0.06976311521772652,-3.0681687864497498,6.670675073005805e-08,0.0006870362900977221,-1.184701036061903e-08,0.7352403011584637,0.00018219937660856228,9.787361179262856,-0.07317947264962546,-0.997305672735509,0.005114676167323947
1701864891.6438785,-4.107744031184153,-3.9230083362942043,0.06570808089338585,0.03484875171917766,0.0012805169921615075,0.998718379160787,-0.03668138364754597,1.1536527573690873e-06,-0.06975868364857955,-3.0681687865538954,8.79138897255001e-08,0.0005508829146212603,-1.355004856536796e-08,0.7310740304197612,0.00016859736937111145,9.787237141373243,-0.07317949520624019,-0.9973056727398687,0.005114352572697239
1701864891.652643,-4.1077442643854125,-3.923008353389523,0.06570829139784456,0.034846975618341304,0.0012804521826022175,0.9987184411346562,-0.036681385879285745,1.154504389181474e-06,-0.06975512691973423,-3.06816878667048,1.0485517564885819e-07,0.00044213259182370563,-1.4967436845359016e-08,0.7272481086858514,0.00015598056777521381,9.787129121410418,-0.07317951327606291,-0.9973056727443662,0.005114093134276789
1701864891.6648152,-4.107744451763153,-3.9230083671069362,0.06570846561180227,0.03484554839310494,0.00128040024130235,0.9987184909330994,-0.03668138766075603,1.155465599035244e-06,-0.0697522688416375,-3.068168786797458,1.183866819756516e-07,0.00035528417585260514,-1.615645862621433e-08,0.7237336590803733,0.00014445196994376707,9.787034561252256,-0.07317952776262286,-0.9973056727490068,0.00511388493128595
1701864891.6716938,-4.107744602552549,-3.9230083781272,0.06570861105546187,0.03484439972442542,0.0012803585745705761,0.9987185310109863,-0.0366813890825123,1.1565143628528953e-06,-0.06974996859483715,-3.0681687869331964,1.2919455030729992e-07,0.0002859408529213069,-1.7163010897370513e-08,0.7205047326327649,0.00013384888098752043,9.786951371877336,-0.07317953938793233,-0.9973056727537958,0.005113717636801357
1701864891.681652,-4.107744724134733,-3.9230083869944017,0.06570873373638328,0.034843473409857675,0.0012803251094066664,0.9987185633300829,-0.036681390216920726,1.1576330893353478e-06,-0.06974811362950693,-3.06816878707639,1.3782697171530443e-07,0.0002305884605776286,-1.8023762672153036e-08,0.7175376900709605,0.00012401596789305975,9.786877842188403,-0.0731795487289753,-0.9973056727587366,0.005113582997043896
1701864891.6916633,-4.107744822409015,-3.9230083941433986,0.06570883845374861,0.034842724529637326,0.0012802981889627704,0.9987185894581455,-0.03668139112181323,1.1588077108725867e-06,-0.06974661399029057,-3.068168787225995,1.4471970545270754e-07,0.00018641830803361968,-1.8767881623205157e-08,0.7148106161623147,0.00011507536429391675,9.786812566158016,-0.07317955624685206,-0.9973056727638319,0.005113474415175879
1701864891.7018418,-4.107744902090355,-3.9230083999217453,0.06570892904142338,0.03484211718175144,0.0012802764890162105,0.998718610648082,-0.03668139184340812,1.1600270018518965e-06,-0.06974539778059619,-3.0681687873811767,1.5022422087908561e-07,0.00015118553246953737,-1.9418870822054622e-08,0.712304008543815,0.00010674673155872074,9.786754381290834,-0.0731795623100622,-0.9973056727690841,0.005113386618706882
1701864891.7118115,-4.10774496694713,-3.9230084046072213,0.06570900856212111,0.034841622671580676,0.0012802589511795779,0.9987186279012016,-0.036681392418642066,1.1612819806200528e-06,-0.06974440753720675,-3.0681687875412686,1.5461801271980172e-07,0.00012309593879267878,-1.9995313485790434e-08,0.7099995286738391,9.916298916188959e-05,9.786702324432081,-0.07317956721310566,-0.9973056727744952,0.005113315393597614
1701864891.722399,-4.107745019991164,-3.9230084084218375,0.06570907946251456,0.034841218065054434,0.0012802447295443408,0.9987186420177488,-0.036681392877035326,1.1625654761360532e-06,-0.06974359733285779,-3.068168787705737,1.581249988630838e-07,0.00010071550692668223,-2.0512191839380187e-08,0.7078807347447764,9.218900949974862e-05,9.786655591903235,-0.0731795711913471,-0.9973056727800661,0.0051132573717992515
1701864891.7337873,-4.1077450636296025,-3.923008411543031,0.06570914369714556,0.034840885032222484,0.0012802331480255794,0.9987186536372847,-0.036681393242180484,1.1638717641533804e-06,-0.06974293046039726,-3.068168787874156,1.6092409839160178e-07,8.289809601326268e-05,-2.0981478570610506e-08,0.7059325828068035,8.569476378418905e-05,9.78661351024601,-0.07317957443289097,-0.9973056727857986,0.005113209861420964
1701864891.7468038,-4.107745099786314,-3.9230084141126174,0.06570920282741058,0.03484060892294098,0.001280223666259359,0.998718663270956,-0.03668139353293394,1.1651962583060962e-06,-0.06974237758177278,-3.068168788046184,1.6315603303389222e-07,6.872766233982813e-05,-2.1412610311322353e-08,0.7041409436198656,7.982558956527436e-05,9.786575512746733,-0.07317957708807528,-0.9973056727916929,0.005113170710967675
1701864891.7518103,-4.107745129998898,-3.9230084162439365,0.06570925810063871,0.03484037802820245,0.0012802158523718941,0.9987186713272797,-0.036681393764365494,1.1665353083625972e-06,-0.06974191524878776,-3.068168788221548,1.6493656805009674e-07,5.747204517258393e-05,-2.1813327155368315e-08,0.7024933808241929,7.432266459678025e-05,9.786541118465001,-0.07317957927705107,-0.9973056727977498,0.005113138200889643
1701864891.7656069,-4.107745155496235,-3.9230084180275737,0.06570931051326093,0.03484018298964635,0.0012802093611845656,0.9987186781327527,-0.036681393948519846,1.1678859851515655e-06,-0.06974152472059869,-3.06816878840003,1.6635487501195977e-07,4.854607922757511e-05,-2.2189618029554395e-08,0.7009779785077325,6.933844861687448e-05,9.786509918405494,-0.07317958109584753,-0.9973056728039701,0.005113110956834325
1701864891.7766767,-4.1077451772604645,-3.9230084195359254,0.06570936086127635,0.03484001632769803,0.00128020391681983,0.9987186839483192,-0.03668139409502303,1.169245953519616e-06,-0.06974119101877735,-3.0681687885814553,1.6748441171266406e-07,4.148206329807793e-05,-2.254640263529409e-08,0.6995841411568777,6.475603615603205e-05,9.786481561678608,-0.07317958262121252,-0.997305672810354,0.005113087880370226
1701864891.7817454,-4.107745196076512,-3.923008420826849,0.06570940978056683,0.034839872064398925,0.001280199298788888,0.9987186889825319,-0.03668139421156902,1.1706133529941848e-06,-0.06974090217199858,-3.0681687887656843,1.683838841306718e-07,3.590618807480408e-05,-2.2887613174858803e-08,0.6983021535552939,6.046200201168075e-05,9.78645574586052,-0.07317958391448584,-0.9973056728169019,0.005113068093595287
1701864891.7967696,-4.10774521257169,-3.923008421946588,0.06570945777910181,0.03483974542191678,0.0012801953308618516,0.9987186934020724,-0.03668139430430679,1.171986684410512e-06,-0.06974064861228277,-3.0681687889526046,1.6909796867599554e-07,3.151969664212464e-05,-2.3216261965072218e-08,0.6971227486479433,5.661696880545427e-05,9.786432209256148,-0.07317958502469188,-0.9973056728236136,0.005113050894841558
1701864891.801777,-4.107745227247327,-3.9230084229320954,0.06570950526266828,0.03483963258166924,0.001280191872197959,0.9987186973401566,-0.03668139437815106,1.1733647641543668e-06,-0.0697404226926234,-3.068168789142127,1.696656927065945e-07,2.8083795192655455e-05,-2.3534955711593624e-08,0.6960379314872758,5.297628468424398e-05,9.78641072330837,-0.0731795859910123,-0.9973056728304899,0.005113035723330184
1701864891.822304,-4.107745240504077,-3.9230084238129046,0.06570955255542228,0.034839530491693416,0.0012801888102246112,0.9987187009032541,-0.036681394437030064,1.1747466320803086e-06,-0.06974021830122815,-3.068168789334179,1.701146893356925e-07,2.5407643134437642e-05,-2.3845567518480783e-08,0.695039810876614,4.973229886997448e-05,9.78639108824482,-0.07317958684476314,-0.9973056728375306,0.005113022130850297
1701864891.8369644,-4.107745252662113,-3.923008424612617,0.0657095999163102,0.034839436712799335,0.001280186054978749,0.9987187041764576,-0.03668139448408292,1.1761315353035114e-06,-0.06974003055343064,-3.0681687895287038,1.7047058826997434e-07,2.3338697948905104e-05,-2.4149807125449215e-08,0.6941216848374587,4.664456274023836e-05,9.786373127757743,-0.07317958761097143,-0.9973056728447355,0.005113009759197163
1701864891.8450613,-4.107745263977295,-3.9230084253500923,0.06570964755218368,0.034839349295498596,0.0012801835345524594,0.9987187072277753,-0.03668139452181887,1.1775188596536543e-06,-0.0697398555452293,-3.068168789725655,1.7075054290219507e-07,2.175505441631128e-05,-2.4448844017164943e-08,0.6932768827231411,4.38823072372534e-05,9.786356686195408,-0.07317958830964065,-0.9973056728521053,0.0051129983220683075
1701864891.851565,-4.107745274654077,-3.9230084260404015,0.06570969562827965,0.034839266681727814,0.0012801811914784304,0.9987187101115604,-0.03668139455224335,1.1789081196423737e-06,-0.0697396901564816,-3.0681687899249956,1.709704672177552e-07,2.0559271945090725e-05,-2.474374626044821e-08,0.6924996110155233,4.134402690744553e-05,9.786341625057108,-0.0731795889567577,-0.9973056728596393,0.005112987590651404
1701864891.8616433,-4.107745284855827,-3.9230084266955867,0.06570974427659097,0.03483918762626699,0.0012801789798309391,0.9987187128712522,-0.036681394576959146,1.1802989327346153e-06,-0.06973953189353846,-3.0681687901266956,1.7114309432360185e-07,1.9673471941284463e-05,-2.503536838940559e-08,0.6917845527834423,3.893068464466468e-05,9.786327820712795,-0.07317958956509928,-0.9973056728673381,0.005112977382082802
1701864891.8769348,-4.107745294713083,-3.923008427325271,0.06570979360255269,0.03483911113389643,0.0012801768628984047,0.9987187155415687,-0.036681394597247466,1.1816909806186307e-06,-0.06973937876339514,-3.0681687903307315,1.7127636308833076e-07,1.9035419904305344e-05,-2.5324262169325936e-08,0.691126472346215,3.6815790395214494e-05,9.786315162608783,-0.07317959014487772,-0.9973056728752014,0.005112967550199483
1701864891.8819394,-4.107745304330128,-3.923008427937141,0.0657098436903859,0.034839036409259186,0.0012801748113489277,0.9987187181502554,-0.03668139461413213,1.1830840232534178e-06,-0.06973922917328818,-3.0681687905370842,1.7137995527438673e-07,1.8595362332028568e-05,-2.5611068095979453e-08,0.6905210712043316,3.476688488869735e-05,9.786303551185947,-0.07317959070425384,-0.9973056728832296,0.005112957978205598
1701864891.8928938,-4.1077453137902795,-3.9230084285373388,0.06570989460736362,0.03483896281668234,0.0012801728017333067,0.9987187207194871,-0.03668139462843127,1.1844778562318801e-06,-0.06973908185023317,-3.068168790745738,1.714582726128946e-07,1.8313547889923093e-05,-2.5896100345099548e-08,0.6899638848195593,3.29602871021717e-05,9.786292896823879,-0.07317959124975006,-0.997305672891422,0.005112948572741876
1701864891.9085371,-4.107745323160089,-3.9230084291307694,0.06570994640722118,0.03483888984815249,0.0012801708153142017,0.9987187232669856,-0.036681394640799274,1.1858723214802114e-06,-0.06973893577689402,-3.0681687909566797,1.7151705034570756e-07,1.8158197249648128e-05,-2.617974378546259e-08,0.689451144798605,3.13012452913306e-05,9.786283118448504,-0.0731795917865799,-0.9973056728997791,0.005112939259203345
1701864891.9115422,-4.107745332492706,-3.9230084297213503,0.06570999913287975,0.034838817097685895,0.001280168837120192,0.9987187258069133,-0.03668139465175846,1.1872672981268775e-06,-0.06973879014025713,-3.068168791169901,1.71560883740615e-07,1.8103911325278336e-05,-2.646230627117714e-08,0.6889793941792486,2.9696795536658676e-05,9.786274142531399,-0.07317959231890828,-0.9973056729083009,0.005112929977974084
1701864891.924513,-4.107745341830575,-3.9230084303122115,0.0657100528186208,0.03483874424080737,0.0012801668551793344,0.9987187283505887,-0.036681394661726874,1.188662676898909e-06,-0.06973864429053557,-3.068168791385393,1.715912091678931e-07,1.8130399618647588e-05,-2.674390244479171e-08,0.6885451056193197,2.832607241192346e-05,9.78626590238032,-0.07317959285006558,-0.9973056729169871,0.005112920681394592
1701864891.9419544,-4.107745351207582,-3.92300843090585,0.0657101074918259,0.03483867101823835,0.0012801648599323505,0.9987187309070568,-0.03668139467103847,1.190058384804099e-06,-0.06973849770850431,-3.0681687916031484,1.7161251459244428e-07,1.822143213657954e-05,-2.7024823150386788e-08,0.6881455501970192,2.696182246819869e-05,9.786258337242183,-0.07317959338271225,-0.9973056729258378,0.005112911331395836
1701864891.9469633,-4.107745360650774,-3.9230084315042597,0.06571016317436326,0.03483859722274976,0.0012801628437317742,0.9987187334835457,-0.03668139467995999,1.1914543491160819e-06,-0.06973834997917076,-3.0681687918231626,1.7162482808387454e-07,1.8364051874675473e-05,-2.7305089827529247e-08,0.6877776700733675,2.581209386495287e-05,9.78625139175789,-0.07317959391897483,-0.9973056729348531,0.005112901897536668
1701864891.9616604,-4.107745370181727,-3.923008432109031,0.06571021988369874,0.034838522688767505,0.0012801608004745,0.9987187360858314,-0.03668139468870489,1.1928505260240286e-06,-0.06973820077096037,-3.0681687920454315,1.7163173067278695e-07,1.8547889238459425e-05,-2.7584932064776448e-08,0.6874392007227976,2.465111729238034e-05,9.786245015395378,-0.07317959446055254,-0.9973056729440329,0.005112892355509198
1701864891.9616604,-4.107745379817656,-3.923008432721433,0.06571027763378012,0.03483844728395526,0.0012801587252762806,0.99871873871853,-0.036681394697443574,1.1942468679159738e-06,-0.06973804981885916,-3.068168792269951,1.7163274716903185e-07,1.8764670159340658e-05,-2.786433489543826e-08,0.6871275467230809,2.366145339394459e-05,9.786239161939534,-0.07317959500880357,-0.9973056729533769,0.005112882685872584
1701864891.9816651,-4.107745389572279,-3.9230084333424773,0.06571033643574609,0.03483837090257528,0.0012801566142372212,0.9987187413853299,-0.03668139470631204,1.1956433420797131e-06,-0.0697378969111192,-3.0681687924967194,1.7162971937048837e-07,1.9007773209769787e-05,-2.8143420325846078e-08,0.6868406579202225,2.275393889230085e-05,9.786233789155222,-0.07317959556481256,-0.9973056729628855,0.005112872873098726
1701864891.991691,-4.107745399456523,-3.923008433972969,0.06571039629849153,0.034838293460147676,0.0012801544642441734,0.9987187440891775,-0.036681394715419514,1.1970399277452836e-06,-0.06973774187856317,-3.068168792725733,1.7162413090259547e-07,1.927190648047242e-05,-2.842228544433244e-08,0.6865766566010512,2.1840940237631626e-05,9.786228858302684,-0.07317959612944702,-0.9973056729725587,0.00511286290478678
1701864892.0036302,-4.107745409479091,-3.9230084346135494,0.06571045722911811,0.03483821488914528,0.0012801522728023926,0.9987187468324282,-0.03668139472485294,1.1984365956863757e-06,-0.06973758458596246,-3.0681687929569903,1.716149283254913e-07,1.955284986557155e-05,-2.8700876129108024e-08,0.686333467515103,2.1106321241813563e-05,9.786224333882194,-0.07317959670340012,-0.9973056729823961,0.005112852771011753
1701864892.0116327,-4.107745419646897,-3.923008435264729,0.06571051923329682,0.03483813513564231,0.001280150037926777,0.9987187496169627,-0.03668139473468179,1.1998333368737758e-06,-0.06973742492532678,-3.06816879319049,1.7160461331659358e-07,1.9847217373198283e-05,-2.897934813131421e-08,0.6861096968084562,2.0327300629213347e-05,9.786220183385508,-0.0731795972872249,-0.9973056729923977,0.00511284246386204
1701864892.026862,-4.107745429965435,-3.923008435926912,0.06571058231555434,0.03483805415652953,0.001280147758024125,0.9987187524442849,-0.03668139474496153,1.2012301315272468e-06,-0.0697372628103264,-3.0681687934262314,1.7159185244854493e-07,2.015231643898936e-05,-2.9257627837537645e-08,0.6859035498228551,1.968897778139033e-05,9.786216376883779,-0.07317959788136384,-0.9973056730025639,0.005112831977000419
1701864892.0353851,-4.107745440439061,-3.92300843660042,0.06571064647950452,0.034837971917376635,0.0012801454318246226,0.9987187553155951,-0.036681394755736965,1.2026269690970228e-06,-0.06973709817201194,-3.068168793664212,1.7157779215065867e-07,2.0465986501061397e-05,-2.95357893829246e-08,0.6857137126922103,1.9104734700416057e-05,9.78621288699113,-0.07317959848617112,-0.9973056730128945,0.005112821305370808
1701864892.0418983,-4.107745451071216,-3.9230084372855067,0.06571071172803221,0.034837888390689534,0.0012801430583169774,0.9987187582318521,-0.036681394767043206,1.2040238466263012e-06,-0.06973693095532466,-3.0681687939044324,1.7156336704356062e-07,2.0786500866559217e-05,-2.981389211968365e-08,0.6855389850059537,1.848913688425362e-05,9.786209688491185,-0.07317959910192798,-0.9973056730233893,0.005112810444941064
1701864892.056618,-4.107745461864623,-3.923008437982373,0.06571077806343899,0.034837803554480705,0.001280140636686138,0.9987187611938225,-0.036681394778909054,1.2054207490808736e-06,-0.06973676111623253,-3.06816879414689,1.7154708644435355e-07,2.1112488791446805e-05,-3.00918513110608e-08,0.6853779143676815,1.8028119659368803e-05,9.786206758188598,-0.07317959972886123,-0.9973056730340483,0.005112799392474079
1701864892.0676503,-4.107745472821417,-3.923008438691175,0.06571084548756227,0.03483771739121624,0.0012801381662892828,0.9987187642021179,-0.03668139479135647,1.2068176788376364e-06,-0.06973658861962286,-3.0681687943915867,1.7153109705657715e-07,2.14428415266884e-05,-3.0369798142703765e-08,0.6852296798400705,1.750082829858043e-05,9.78620407486289,-0.0731796003671493,-0.9973056730448717,0.005112788145402612
1701864892.071716,-4.107745483943274,-3.9230084394120386,0.06571091400186724,0.03483762988686782,0.001280135646605831,0.9987187672572271,-0.03668139480440435,1.2082146251302092e-06,-0.06973641343740267,-3.0681687946385194,1.715137839329387e-07,2.1776686475233896e-05,-3.0647639100025246e-08,0.6850930138071785,1.709406696970003e-05,9.786201618865379,-0.07317960101693786,-0.9973056730558596,0.005112776701660246
1701864892.091824,-4.107745495231497,-3.9230084401450585,0.0657109836075229,0.034837541030243176,0.0012801330772230926,0.9987187703595403,-0.036681394818066884,1.209611584730596e-06,-0.06973623554715859,-3.068168794887689,1.7149607068268696e-07,2.211331759286111e-05,-3.092543262924942e-08,0.6849670870467791,1.6722899909124216e-05,9.786199372251616,-0.07317960167834127,-0.9973056730670116,0.0051127650596035495
1701864892.101932,-4.107745506687091,-3.923008440890308,0.06571105430546184,0.03483745081241671,0.0012801304578146675,0.998718773509368,-0.03668139483235538,1.2110085604922838e-06,-0.06973605493101663,-3.0681687951390955,1.7147871116300332e-07,2.2452170601180506e-05,-3.1203225108780855e-08,0.6848511451091012,1.63032968889381e-05,9.786197318458013,-0.07317960235145048,-0.9973056730783277,0.005112753217927334
1701864892.1154113,-4.107745518310828,-3.923008441647846,0.06571112609642683,0.03483735922623767,0.0012801277881127593,0.9987187767069597,-0.03668139484727939,1.212405542052599e-06,-0.06973587157465665,-3.0681687953927375,1.7146007212341196e-07,2.2792803743107976e-05,-3.1480921484261673e-08,0.6847441457491104,1.6022609104345998e-05,9.786195442197064,-0.07317960303633976,-0.9973056730898083,0.005112741175573394
1701864892.1320422,-4.107745530103287,-3.923008442417714,0.06571119898101072,0.03483726626602662,0.0012801250679117973,0.9987187799525132,-0.036681394862845995,1.213802535481321e-06,-0.06973568546670542,-3.068168795648616,1.7144218444818172e-07,2.313485066813976e-05,-3.1758644638023814e-08,0.6846456453227365,1.5661231267202198e-05,9.786193729544419,-0.07317960373306655,-0.997305673101453,0.00511272893171545
1701864892.1415582,-4.1077455420649,-3.923008443199944,0.06571127295968493,0.03483717192722277,0.0012801222970395146,0.998718783246187,-0.03668139487906165,1.215199531207863e-06,-0.06973549659802931,-3.068168795906729,1.7142311770319883e-07,2.3478032982262566e-05,-3.2036281059935995e-08,0.6845546876687826,1.5434093711579947e-05,9.78619216751264,-0.07317960444167906,-0.9973056731132621,0.0051127164856756765
1701864892.1566985,-4.107745554195976,-3.9230084439945587,0.06571134803282584,0.03483707620621557,0.0012801194753666648,0.9987187865881066,-0.036681394895930336,1.2165965360087973e-06,-0.06973530496139828,-3.068168796167078,1.7140488562996852e-07,2.3822114062611573e-05,-3.2313952309184e-08,0.6844709412045192,1.5121952126417625e-05,9.78619074433155,-0.07317960516221263,-0.9973056731252354,0.0051127038369316235
1701864892.1637204,-4.107745566496727,-3.9230084448015745,0.0657114242007322,0.03483697910010028,0.0012801166027829735,0.998718789978373,-0.036681394913456525,1.2179935426435713e-06,-0.06973511055099513,-3.068168796429662,1.7138576385237382e-07,2.416691826500714e-05,-3.259155655823193e-08,0.6843935883512438,1.4913174326467308e-05,9.786189448990703,-0.0731796058946986,-0.9973056731373728,0.005112690985050491
1701864892.179554,-4.107745578967292,-3.923008445621001,0.0657115014636421,0.03483688060657104,0.001280113679203539,0.9987187934170663,-0.03668139493164261,1.219390550726239e-06,-0.06973491336220222,-3.0681687966944806,1.713665903909147e-07,2.4512296476292157e-05,-3.286914579139171e-08,0.6843222140910662,1.4724089437524557e-05,9.786188271510303,-0.07317960663915948,-0.9973056731496743,0.005112677929693906
1701864892.1815608,-4.107745591607743,-3.9230084464528434,0.06571157982174505,0.03483678072380078,0.0012801107045638009,0.9987187969042497,-0.03668139495049126,1.2207875653260206e-06,-0.069734713391361,-3.0681687969615346,1.7134804834612934e-07,2.4858129481191754e-05,-3.314676092149584e-08,0.6842564448430625,1.447206183159675e-05,9.786187202640104,-0.07317960739561434,-0.9973056731621402,0.005112664670599216
1701864892.1952283,-4.107745604418109,-3.923008447297104,0.06571165927519093,0.03483667945030873,0.0012801076788051132,0.9987188004399745,-0.03668139497000473,1.2221845778857824e-06,-0.06973451063550581,-3.0681687972308223,1.7132845014938125e-07,2.5204331149166114e-05,-3.342430271399711e-08,0.6841955888213893,1.4345509526447043e-05,9.786186233805724,-0.07317960816407924,-0.9973056731747704,0.005112651207540928
1701864892.2017334,-4.107745617398372,-3.923008448153782,0.0657117398240995,0.03483657678494389,0.0012801046018889573,0.9987188040242804,-0.03668139499018388,1.2235815959650334e-06,-0.06973430509233197,-3.068168797502345,1.7130978445049582e-07,2.555081930227399e-05,-3.370189027636138e-08,0.6841395248202911,1.412593749761333e-05,9.786185357276267,-0.07317960894456442,-0.9973056731875647,0.0051126375403578285
1701864892.2215142,-4.10774563054849,-3.923008449022874,0.06571182146856504,0.03483647272676538,0.0012801014737775036,0.9987188076571999,-0.036681395011030266,1.2249786129830472e-06,-0.06973409675995515,-3.0681687977761025,1.7129030651013604e-07,2.5897541699823306e-05,-3.397942054096355e-08,0.6840876288530833,1.400227334749243e-05,9.786184565745335,-0.07317960973708032,-0.9973056732005232,0.005112623668905512
1701864892.2316225,-4.107745643868395,-3.923008449904375,0.06571190420866245,0.03483636727503512,0.0012800982944436955,0.9987188113387581,-0.036681395032544986,1.2263756290293084e-06,-0.06973388563689731,-3.0681687980520937,1.7127084189121954e-07,2.624444782639115e-05,-3.425694397872254e-08,0.6840396639184442,1.3891546559553406e-05,9.78618385264754,-0.07317961054163473,-0.9973056732136459,0.005112609593075928
1701864892.2427359,-4.107745657357994,-3.9230084507982776,0.06571198804445133,0.03483626042917744,0.0012800950638691458,0.9987188150689748,-0.03668139505472852,1.227772649639285e-06,-0.06973367172200587,-3.06816879833032,1.7125206159670847e-07,2.6591497227701887e-05,-3.4534500474295554e-08,0.6839954202930194,1.3711573622628379e-05,9.78618321187937,-0.07317961135823274,-0.997305673226933,0.005112595312790202
1701864892.2518272,-4.1077456710171845,-3.923008451704576,0.065712072975978,0.03483615218871018,0.0012800917820320493,0.9987188188478662,-0.03668139507758172,1.2291696665881508e-06,-0.069733455014315,-3.0681687986107797,1.7123226492356797e-07,2.6938666694348246e-05,-3.481198966692534e-08,0.6839543568857928,1.365132135710025e-05,9.786182637750166,-0.07317961218687993,-0.9973056732403839,0.005112580827969499
1701864892.2669747,-4.107745684845846,-3.9230084526232587,0.06571215900327976,0.03483604255327909,0.0012800884489232868,0.9987188226754444,-0.03668139510110483,1.2305666876820448e-06,-0.06973323551311557,-3.068168798893474,1.7121343462913393e-07,2.7285924308122798e-05,-3.50895300007119e-08,0.6839164911010469,1.349275477157453e-05,9.786182125198573,-0.07317961302757915,-0.9973056732539992,0.005112566138569663
1701864892.2745006,-4.107745698843854,-3.9230084535543193,0.06571224612638513,0.03483593152257519,0.0012800850645274542,0.9987188265517196,-0.0366813951252985,1.231963704777901e-06,-0.06973301321778863,-3.068168799178402,1.7119359761573404e-07,2.7633258865417147e-05,-3.5367004716106366e-08,0.6838812909224332,1.3452201048879296e-05,9.786181669353022,-0.07317961388033428,-0.9973056732677786,0.005112551244537328
1701864892.2918708,-4.1077457130110675,-3.923008454497746,0.06571233434531726,0.034835819096382226,0.001280081628840531,0.9987188304766988,-0.03668139515016297,1.2333607257283984e-06,-0.06973278812790137,-3.0681687994655644,1.711747340904517e-07,2.7980647222805403e-05,-3.564453202105955e-08,0.6838488150148366,1.3311716573906029e-05,9.786181265946555,-0.07317961474514706,-0.9973056732817224,0.005112536145848626
1701864892.3019826,-4.107745727347348,-3.9230084554535285,0.06571242366009356,0.03483570527450469,0.001280078141852186,0.9987188344503887,-0.03668139517569821,1.2347577442411677e-06,-0.06973256024306218,-3.068168799754961,1.7115508925587376e-07,2.8328084271585475e-05,-3.5922007648263346e-08,0.6838186046744132,1.3260868017763319e-05,9.786180910845722,-0.07317961562201908,-0.9973056732958302,0.00511252084246859
1701864892.3114972,-4.107745741852547,-3.9230084564216563,0.06571251407072785,0.03483559005679869,0.0012800746035572944,0.9987188384727935,-0.03668139520190493,1.2361547605966434e-06,-0.06973232956298284,-3.0681688000465903,1.711354842488648e-07,2.8675557130491595e-05,-3.6199481643243983e-08,0.68379057527659,1.3217067723228422e-05,9.786180600410155,-0.0731796165109527,-0.997305673310102,0.005112505334376491
1701864892.3230119,-4.107745756526511,-3.9230084574021182,0.06571260557723116,0.03483547344316205,0.001280071013954951,0.9987188425439163,-0.036681395228782644,1.2375517805355696e-06,-0.06973209608745899,-3.068168800340455,1.7111658562643106e-07,2.9023055398332907e-05,-3.6476993297941607e-08,0.6837646569701604,1.309871296602848e-05,9.786180331232428,-0.07317961741194749,-0.9973056733245382,0.005112489621562989
1701864892.3378549,-4.107745771369089,-3.9230084583949028,0.06571269817961126,0.034835355433489694,0.001280067373037268,0.9987188466637604,-0.03668139525633203,1.2389487959496942e-06,-0.06973185981628002,-3.068168800636552,1.710966878029461e-07,2.9370579853995713e-05,-3.675444157123571e-08,0.6837404375454298,1.3095132956370735e-05,9.786180100092459,-0.07317961832500579,-0.9973056733391384,0.0051124737040046785
1701864892.34186,-4.10774578638012,-3.9230084593999983,0.06571279187787488,0.03483523602772759,0.0012800636808062151,0.9987188508323271,-0.03668139528455289,1.2403458147730192e-06,-0.069731620749338,-3.0681688009348838,1.7107777109444926e-07,2.971811772690785e-05,-3.70319446860838e-08,0.683718052917552,1.2988692188871174e-05,9.786179904216038,-0.0731796192501272,-0.9973056733539031,0.0051124575817015116
1701864892.3536549,-4.107745801559446,-3.9230084604173934,0.06571288667202643,0.03483511522580913,0.0012800599372562304,0.9987188550496183,-0.0366813953134452,1.241742830769714e-06,-0.06973137888649936,-3.068168801235449,1.7105808183929252e-07,3.0065672192844678e-05,-3.7309398359564634e-08,0.6836971157104985,1.2969129067869569e-05,9.786179740830168,-0.07317962018731233,-0.9973056733688316,0.0051124412546374965
1701864892.3697393,-4.107745816906907,-3.923008461447076,0.0657129825620695,0.03483499302769286,0.0012800561423859747,0.9987188593156349,-0.03668139534300939,1.243139844277181e-06,-0.06973113422768111,-3.0681688015382473,1.7103843782193467e-07,3.0413236983608798e-05,-3.758685217918934e-08,0.6836776065790211,1.295414458408982e-05,9.786179607562287,-0.07317962113656222,-0.9973056733839244,0.005112424722806942
1701864892.3819983,-4.1077458324223395,-3.923008462489034,0.06571307954800704,0.03483486943335778,0.0012800522961975355,0.9987188636303771,-0.03668139537324505,1.2445368610461772e-06,-0.06973088677284149,-3.0681688018432802,1.710195031389239e-07,3.076080696729965e-05,-3.7864345183879386e-08,0.6836595159896935,1.286227616865514e-05,9.78617950216546,-0.07317962209787592,-0.9973056733991813,0.005112407986212444
1701864892.3915074,-4.107745848105582,-3.923008463543256,0.06571317762984044,0.034834744442763146,0.0012800483986854093,0.9987188679938458,-0.0366813954041524,1.2459338730384546e-06,-0.06973063652189862,-3.0681688021505464,1.7099957463819242e-07,3.110838712309189e-05,-3.814177646068561e-08,0.6836424871346882,1.2883074370915502e-05,9.786179422483668,-0.07317962307125433,-0.9973056734146026,0.005112391044840045
1701864892.4017332,-4.107745863956467,-3.923008464609729,0.06571327680757152,0.03483461805590581,0.0012800444498534493,0.9987188724060406,-0.036681395435731394,1.2473308881997618e-06,-0.06973038347484653,-3.0681688024600464,1.7098063046879332e-07,3.1455968020436104e-05,-3.84192639039935e-08,0.6836267068736204,1.2799069873417308e-05,9.786179366729291,-0.07317962405669703,-0.9973056734301878,0.0051123738986971964
1701864892.4167666,-4.107745879974833,-3.923008465688442,0.0657133770812008,0.03483449027275946,0.0012800404496975848,0.9987188768669618,-0.03668139546798232,1.2487279002929713e-06,-0.0697301276316323,-3.0681688027717793,1.709609168212318e-07,3.1803555501992164e-05,-3.8696703117549234e-08,0.6836118347662938,1.280011956505461e-05,9.786179333033287,-0.07317962505420487,-0.9973056734459373,0.005112356547773852
1701864892.4369817,-4.107745896160514,-3.9230084667793816,0.0657134784507288,0.03483436109331423,0.0012800363982176394,0.9987188813766095,-0.036681395500904886,1.2501249097072252e-06,-0.06972986899223631,-3.0681688030857464,1.709412486843893e-07,3.215114542116738e-05,-3.89741434621246e-08,0.6835978945407916,1.2804134010764304e-05,9.7861793198557,-0.07317962606377726,-0.997305673461851,0.005112338992068915
1701864892.4516113,-4.107745912513344,-3.9230084678825365,0.06571358091615614,0.0348342305175741,0.001280032295416632,0.9987188859349826,-0.03668139553449916,1.2515219221858936e-06,-0.0697296075566667,-3.0681688034019468,1.709222938289618e-07,3.249873432539918e-05,-3.925162424726701e-08,0.6835849164466423,1.2729718909726022e-05,9.786179325715908,-0.07317962708541394,-0.9973056734779286,0.0051123212315887095
1701864892.4651775,-4.107745929033159,-3.9230084689978946,0.06571368447748248,0.03483409854551789,0.0012800281412897858,0.9987188905420816,-0.03668139556876511,1.2529189297224688e-06,-0.06972934332488082,-3.0681688037203805,1.7090234681506642e-07,3.284632853609226e-05,-3.9529044081856526e-08,0.683572580125915,1.2766583847324756e-05,9.786179349162854,-0.07317962811911517,-0.9973056734941705,0.005112303266322128
1701864892.4716823,-4.107745945719791,-3.923008470125443,0.06571378913470818,0.034833965177157686,0.0012800239358415177,0.9987188951979056,-0.03668139560370271,1.2543159402687877e-06,-0.06972907629690325,-3.068168804041048,1.7088338527348767e-07,3.319391968515905e-05,-3.9806520966266466e-08,0.6835611060421388,1.2697368810416376e-05,9.786179389059512,-0.07317962916488051,-0.9973056735105769,0.005112285096278883
1701864892.4817777,-4.107745962573074,-3.9230084712651703,0.06571389488783265,0.03483383041247551,0.0012800196790671659,0.9987188999024542,-0.03668139563931225,1.2557129457892168e-06,-0.06972880647269765,-3.0681688043639483,1.7086343144336787e-07,3.354151535783873e-05,-4.0083937345151434e-08,0.6835501490433517,1.2739006694087936e-05,9.786179444124693,-0.07317963022271069,-0.997305673527147,0.005112266721448347
1701864892.5017662,-4.107745979592844,-3.923008472417063,0.06571400173685608,0.034833694251485775,0.001280015370971246,0.9987189046557269,-0.0366813956755932,1.257109954296891e-06,-0.06972853385229329,-3.068168804689083,1.708444660798853e-07,3.388910738531487e-05,-4.0361411123373044e-08,0.6835399396062627,1.2674154975733253e-05,9.786179513416082,-0.07317963129260427,-0.9973056735438813,0.005112248141840565
1701864892.5132024,-4.107745996778931,-3.92300847358111,0.06571410968177786,0.03483355669417588,0.0012800110115501874,0.9987189094577231,-0.03668139571254585,1.2585069595472956e-06,-0.06972825843566473,-3.068168805016451,1.7082473026235982e-07,3.4236702587512605e-05,-4.0638837456962736e-08,0.6835301772785145,1.269286799654718e-05,9.78617959583879,-0.07317963237456197,-0.9973056735607799,0.005112229357447491
1701864892.52272,-4.107746014131172,-3.9230084747572995,0.06571421872259767,0.034833417740546505,0.001280006600804214,0.9987189143084424,-0.03668139575017039,1.2599039619191411e-06,-0.06972798022281333,-3.068168805346051,1.7080504334468253e-07,3.45842976001605e-05,-4.0916266085476966e-08,0.6835209228023814,1.2713082103101751e-05,9.786179690566582,-0.07317963346858403,-0.9973056735778426,0.005112210368269634
1701864892.5368714,-4.107746031649399,-3.923008475945618,0.0657143288593155,0.034833277390609735,0.0012800021387366514,0.9987189192078838,-0.03668139578846639,1.2613009672084016e-06,-0.06972769921376362,-3.0681688056778857,1.7078607180909614e-07,3.493188958359539e-05,-4.1193735855019406e-08,0.6835122402193469,1.2653613313275728e-05,9.786179796776354,-0.07317963457466918,-0.9973056735950694,0.005112191174314483
1701864892.5448937,-4.1077460493334454,-3.9230084771460536,0.06571444009193052,0.03483313564435053,0.001279997625342943,0.9987189241560472,-0.03668139582743408,1.2626979673781408e-06,-0.0697274154084852,-3.0681688060119536,1.707661067170445e-07,3.527948533886044e-05,-4.1471145431587895e-08,0.6835038404603239,1.2704204559272635e-05,9.786179913619371,-0.07317963569281813,-0.9973056736124605,0.005112171775571847
1701864892.5518992,-4.107746067183145,-3.923008478358594,0.06571455242044286,0.0348329925017856,0.0012799930606276846,0.9987189291529316,-0.036681395867073203,1.2640949704149744e-06,-0.06972712880701185,-3.068168806348255,1.7074712952660335e-07,3.562707688770084e-05,-4.174861281530775e-08,0.6834959727054999,1.2647612761762425e-05,9.78618004051498,-0.07317963682302987,-0.9973056736300158,0.0051121521720521096
1701864892.5616841,-4.107746085198331,-3.9230084795832276,0.06571466584485179,0.03483284796290397,0.0012799884445873775,0.9987189341985365,-0.03668139590738423,1.265491970082649e-06,-0.06972683940932144,-3.068168806686789,1.707273843952754e-07,3.597467120109511e-05,-4.202603333777934e-08,0.6834883538367497,1.2673893781371617e-05,9.786180176698572,-0.0731796379653055,-0.9973056736477349,0.005112132363747501
1701864892.576768,-4.107746103378838,-3.923008480819942,0.06571478036515702,0.03483270202770747,0.0012799837772222852,0.9987189392928615,-0.03668139594836649,1.2668889668176954e-06,-0.06972654721541764,-3.068168807027557,1.7070768800391634e-07,3.632226504250209e-05,-4.230345651770587e-08,0.6834810603267125,1.2701106735219068e-05,9.786180321654447,-0.07317963911964352,-0.9973056736656184,0.0051121123506586335
1701864892.5817754,-4.107746121724496,-3.923008482068724,0.06571489598135855,0.034832554696208946,0.001279979058535756,0.9987189444359053,-0.03668139599002043,1.2682859663417476e-06,-0.06972625222532647,-3.068168807370558,1.7068870509213497e-07,3.66698556600504e-05,-4.258092099196165e-08,0.68347417093934,1.2648043662226353e-05,9.786180474838305,-0.0731796402860444,-0.9973056736836661,0.005112092132793159
1701864892.5926266,-4.107746140235142,-3.923008483329562,0.06571501269345555,0.03483240596839385,0.0012799742885232631,0.9987189496276677,-0.03668139603234607,1.269682960657866e-06,-0.06972595443901852,-3.0681688077157916,1.7066873235453873e-07,3.7017449932179026e-05,-4.285832585754874e-08,0.6834674099655283,1.2704545008531041e-05,9.786180635662872,-0.07317964146450841,-0.9973056737018778,0.005112071710140968
1701864892.6086948,-4.107746158910608,-3.9230084846024442,0.06571513050144825,0.03483225584427915,0.0012799694671894108,0.9987189548681479,-0.036681396075342904,1.2710799577652735e-06,-0.06972565385652817,-3.06816880806326,1.706497461547239e-07,3.736503993278387e-05,-4.3135788766227554e-08,0.6834610389304369,1.26533993917978e-05,9.786180803787135,-0.07317964265503406,-0.9973056737202538,0.005112051082712458
1701864892.6218233,-4.1077461777507285,-3.9230084858873573,0.06571524940533585,0.034832104323850345,0.0012799645945296711,0.9987189601573454,-0.03668139611901143,1.2724769496266003e-06,-0.06972535047782603,-3.06816880841296,1.7062976992382863e-07,3.771263358161298e-05,-4.34131920359272e-08,0.683454750464001,1.2711666510785549e-05,9.786180978659111,-0.07317964385762257,-0.9973056737387939,0.005112030250497552
1701864892.6318812,-4.107746196755334,-3.92300848718429,0.06571536940511857,0.03483195140712433,0.0012799596705486524,0.9987189654952593,-0.03668139616335141,1.2738739442380255e-06,-0.06972504430294636,-3.068168808764894,1.7061078214285168e-07,3.806022297283741e-05,-4.369065351503171e-08,0.6834488098376488,1.2662098138572862e-05,9.786181160010925,-0.07317964507227293,-0.9973056737574982,0.0051120092135066705
1701864892.6416914,-4.107746215924262,-3.9230084884932293,0.0657154905007958,0.03483179709409009,0.0012799546952428447,0.998718970881889,-0.03668139620836283,1.2752709353767738e-06,-0.06972473533186686,-3.0681688091190615,1.705910245003568e-07,3.840781513830972e-05,-4.3968068393920556e-08,0.6834429485024313,1.2694888903917207e-05,9.786181347366679,-0.07317964629898525,-0.9973056737763665,0.005111987971731989
1701864892.651701,-4.107746235257344,-3.9230084898141637,0.06571561269236728,0.03483164138474936,0.0012799496686125224,0.9987189763172339,-0.03668139625404552,1.2766679234737254e-06,-0.0697244235645911,-3.0681688094754618,1.7057131914407932e-07,3.875540685693478e-05,-4.424548633755391e-08,0.6834372567095824,1.2728043076258776e-05,9.786181540468919,-0.07317964753775903,-0.997305673795399,0.005111966525174167
1701864892.661722,-4.107746254754413,-3.92300849114708,0.06571573597983317,0.034831484279114706,0.0012799445906610228,0.9987189818012931,-0.03668139630039986,1.2780649142539905e-06,-0.06972410900114448,-3.0681688098340953,1.7055232686624217e-07,3.910299541957991e-05,-4.4522945974319315e-08,0.6834318255060196,1.268048555134367e-05,9.786181739020346,-0.07317964878859465,-0.9973056738145959,0.005111944873840808
1701864892.6715167,-4.107746274415304,-3.923008492491967,0.06571586036319275,0.03483132577717125,0.001279939461383802,0.9987189873340663,-0.03668139634742543,1.2794618997406297e-06,-0.06972379164149696,-3.0681688101949622,1.7053234298783296e-07,3.945058771448564e-05,-4.480034605566838e-08,0.68342639075388,1.2742032495299025e-05,9.786181942652409,-0.07317965005149146,-0.9973056738339567,0.005111923017721712
1701864892.6816857,-4.107746294239848,-3.9230084938488115,0.0657159858424463,0.03483116587893566,0.0012799342807854597,0.9987189929155523,-0.03668139639512224,1.2808588879098236e-06,-0.0697234714856823,-3.0681688105580625,1.7051334853279167e-07,3.979817582184154e-05,-4.507780462762721e-08,0.6834212245492959,1.2695518003913348e-05,9.786182151229756,-0.07317965132644896,-0.9973056738534816,0.005111900956827283
1701864892.6918314,-4.107746314227881,-3.9230084952176023,0.06571611241759329,0.034831004584396585,0.0012799290488624806,0.9987189985457506,-0.03668139644349051,1.282255872537493e-06,-0.06972314853367752,-3.0681688109233956,1.7049358528416705e-07,4.014576677349283e-05,-4.5355216670441924e-08,0.6834160648041031,1.2731078233398694e-05,9.786182364396442,-0.07317965261346775,-0.9973056738731707,0.005111878691149676
1701864892.7033536,-4.107746334379236,-3.9230084965983263,0.06571624008863355,0.03483084189355548,0.0012799237656151204,0.9987190042246609,-0.03668139649253024,1.2836528540266948e-06,-0.06972282278548564,-3.0681688112909615,1.7047387238336942e-07,4.049335735697515e-05,-4.563263191690016e-08,0.6834110074594462,1.2766812444691581e-05,9.78618258201033,-0.07317965391254763,-0.997305673893024,0.005111856220689506
1701864892.7118597,-4.107746354693745,-3.923008497990972,0.06571636885556725,0.03483067780642462,0.001279918431046712,0.9987190099522817,-0.03668139654224096,1.2850498381720977e-06,-0.06972249424113147,-3.068168811660761,1.704548741712164e-07,4.084094485205659e-05,-4.5910088985444934e-08,0.6834061490494102,1.272160902226606e-05,9.786182803875098,-0.0731796552236873,-0.9973056739130415,0.0051118335454542856
1701864892.7269638,-4.107746375171245,-3.923008499395526,0.0657164987183938,0.034830512322988866,0.0012799130451527046,0.9987190157286131,-0.03668139659262314,1.2864468169406816e-06,-0.06972216290058449,-3.0681688120327935,1.7043488530614683e-07,4.118853614850774e-05,-4.618748669494512e-08,0.6834012303171542,1.2785326351514943e-05,9.786183029719714,-0.0731796565468879,-0.9973056739332232,0.005111810665433849
1701864892.7516322,-4.107746395811565,-3.923008500811977,0.0657166296771135,0.03483034544326456,0.0012799076079376792,0.9987190215536537,-0.036681396643676346,1.2878437983260158e-06,-0.06972182876387774,-3.0681688124070594,1.7041588338219101e-07,4.153612332876955e-05,-4.646494284650694e-08,0.6833965278738523,1.2740821205386414e-05,9.78618325949756,-0.07317965788214796,-0.9973056739535688,0.005111787580638497
1701864892.7616467,-4.1077464166145425,-3.9230085022403123,0.06571676173172585,0.034830177167240156,0.0012799021193981221,0.9987190274274031,-0.03668139669540099,1.289240776109674e-06,-0.06972149183098793,-3.068168812783558,1.703961158006457e-07,4.188371341359619e-05,-4.674235280542369e-08,0.6833917838976699,1.2778199558082306e-05,9.786183492931546,-0.07317965922946855,-0.9973056739740789,0.005111764291060396
1701864892.7715755,-4.10774643758001,-3.9230085036805202,0.06571689488223076,0.03483000749491681,0.001279896579534274,0.9987190333498608,-0.03668139674779666,1.2906377507121028e-06,-0.0697211521019174,-3.06816881316229,1.703763970257427e-07,4.223130319351532e-05,-4.701976592923997e-08,0.6833870980603249,1.2815642419557446e-05,9.786183729955718,-0.07317966058884863,-0.9973056739947529,0.0051117407967000775
1701864892.7830026,-4.107746458707799,-3.9230085051325876,0.06571702912862845,0.034829836426306604,0.0012798909883494564,0.9987190393210257,-0.03668139680086355,1.292034727876671e-06,-0.06972080957669068,-3.068168813543255,1.7035739208822847e-07,4.257888994231821e-05,-4.7297220882654184e-08,0.6833825705293689,1.2771982522599416e-05,9.786183970441996,-0.07317966196028815,-0.9973056740155911,0.005111717097565062
1701864892.7965493,-4.107746479997747,-3.9230085065965037,0.06571716447091833,0.03482966396139415,0.0012798853458391229,0.9987190453408972,-0.03668139685460169,1.2934316996238326e-06,-0.06972046425527666,-3.0681688139264525,1.7033739952440905e-07,4.2926480546502454e-05,-4.757461679874778e-08,0.6833779452441084,1.2837137903289902e-05,9.786184214182066,-0.07317966334378741,-0.9973056740365934,0.00511169319364514
1701864892.8015592,-4.107746501449683,-3.9230085080722548,0.06571730090910077,0.034829490100195586,0.001279879652007837,0.9987190514094744,-0.03668139690901082,1.2948286739184632e-06,-0.06972011613770798,-3.0681688143118837,1.7031839179947283e-07,4.3274067085943916e-05,-4.785207103505648e-08,0.6833735018168129,1.2793954092460332e-05,9.786184461187998,-0.07317966473934534,-0.99730567405776,0.005111669084950586
1701864892.8150282,-4.107746523063446,-3.9230085095598293,0.06571743844317524,0.03482931484269558,0.0012798739068510478,0.9987190575267569,-0.036681396964091194,1.2962256427531944e-06,-0.06971976522395376,-3.0681688146995474,1.7029839529893117e-07,4.362165748086372e-05,-4.8129466160611274e-08,0.6833689495615705,1.2859533469772443e-05,9.786184711227326,-0.07317966614696268,-0.9973056740790907,0.0051116447714711945
1701864892.823068,-4.1077465448388635,-3.9230085110592148,0.06571757707314206,0.034829138188910244,0.001279868110373332,0.9987190636927438,-0.03668139701984235,1.2976226141333323e-06,-0.06971941151404656,-3.068168815089445,1.702793870650228e-07,4.3969243823207764e-05,-4.8406919808593515e-08,0.6833645690013697,1.2816717605213191e-05,9.786184964331902,-0.07317966756663798,-0.9973056741005857,0.005111620253217249
1701864892.8366306,-4.1077465667757735,-3.923008512570399,0.06571771679900082,0.0348289601388277,0.0012798622625711624,0.9987190699074341,-0.036681397076264756,1.2990195818317569e-06,-0.06971905500796244,-3.0681688154815747,1.7025961229577677e-07,4.4316833140390404e-05,-4.868432736493002e-08,0.6833601057581383,1.2855696116096979e-05,9.78618522029635,-0.07317966899837226,-0.9973056741222445,0.005111595530180863
1701864892.8416355,-4.107746588874009,-3.92300851409337,0.06571785762075144,0.03482878069244891,0.001279856363444772,0.9987190761708276,-0.03668139713335817,1.3004165462571772e-06,-0.0697186957057034,-3.068168815875938,1.7023988641254706e-07,4.466442220829694e-05,-4.896173804812735e-08,0.6833556629413718,1.2894559466474612e-05,9.786185479117975,-0.07317967044216492,-0.9973056741440678,0.005111570602362548
1701864892.8516557,-4.107746611133401,-3.9230085156281147,0.0657179995383942,0.0348285998497857,0.001279850412997481,0.9987190824829227,-0.03668139719112235,1.3018135131973049e-06,-0.06971833360729336,-3.0681688162725345,1.7022087600884263e-07,4.5012008298763974e-05,-4.923919085814616e-08,0.6833513436188309,1.2852240975485973e-05,9.786185740726728,-0.07317967189801501,-0.997305674166055,0.0051115454697697755
1701864892.8619032,-4.107746633553788,-3.923008517174622,0.06571814255192855,0.0348284176108225,0.0012798444112247216,0.9987190888437195,-0.036681397249557796,1.3032104746152097e-06,-0.0697179687127009,-3.068168816671363,1.702008746132579e-07,4.535959829686583e-05,-4.951658446560153e-08,0.683346894575801,1.2918618508470061e-05,9.786186004968993,-0.07317967336592372,-0.9973056741882064,0.00511152013239231
1701864892.8777301,-4.107746656134999,-3.9230085187328787,0.0657182866613549,0.0348282339755753,0.0012798383581310634,0.9987190952532167,-0.036681397308663995,1.304607438510546e-06,-0.06971760102195841,-3.0681688170724253,1.701818613567829e-07,4.5707184274117946e-05,-4.9794036657729727e-08,0.6833425979928798,1.2876549091418579e-05,9.786186271905324,-0.07317967484588957,-0.997305674210522,0.0051114945902404115
1701864892.8817337,-4.107746678876871,-3.923008520302873,0.06571843186667281,0.03482804894403213,0.0012798322537129747,0.9987191017114136,-0.036681397368441226,1.3060043986701063e-06,-0.06971723053504174,-3.0681688174757205,1.7016208097117567e-07,4.605477325038881e-05,-5.007144264660159e-08,0.683338201119021,1.2916183080908498e-05,9.78618654135772,-0.07317967633791313,-0.9973056742330018,0.005111468843306158
1701864892.8936632,-4.107746701779237,-3.9230085218845936,0.06571857816788224,0.03482786251619384,0.0012798260979706882,0.9987191082183098,-0.03668139742888924,1.3074013555082514e-06,-0.06971685725195265,-3.068168817881248,1.7014235027643126e-07,4.640236200629311e-05,-5.034885199191025e-08,0.6833338083697997,1.2955687899175723e-05,9.78618681335196,-0.0731796778419938,-0.9973056742556456,0.005111442891590049
1701864892.9097357,-4.107746724910891,-3.9230085234771237,0.06571872539454214,0.03482767416723705,0.0012798199169415233,0.9987191147922072,-0.03668139748907032,1.3088891522154855e-06,-0.06971648012502657,-3.0681688182953963,1.8135991857255896e-07,4.688018465440767e-05,-5.1418477234205094e-08,0.6833298788299285,1.2860474304660813e-05,9.786183493600639,-0.07317967935713085,-0.9973056742784581,0.005111416748579048
1701864892.9232564,-4.107746748189882,-3.923008525081539,0.06571887374779947,0.034827484519343296,0.0012798136796127696,0.9987191214114068,-0.03668139755009505,1.3103598027256257e-06,-0.06971610039626618,-3.0681688187105842,1.7921950753134993e-07,4.720361548548407e-05,-5.15479621867199e-08,0.6833249038786189,1.2993545595996761e-05,9.78618789697789,-0.07317968088451819,-0.9973056743014349,0.005111390397993955
1701864892.9318175,-4.107746771618136,-3.923008526697776,0.06571902322359438,0.03482729355660545,0.0012798073869547289,0.9987191280764627,-0.03668139761192991,1.3118164234665858e-06,-0.06971571803393058,-3.068168819127029,1.774646221694153e-07,4.753099197890023e-05,-5.1704314243836736e-08,0.6833207338856684,1.295136121419138e-05,9.786188240477111,-0.07317968242410258,-0.9973056743245756,0.005111363840604984
1701864892.9416523,-4.107746795197636,-3.923008528325797,0.06571917381661638,0.03482710126271068,0.0012798010397615822,0.9987191347879429,-0.03668139767454696,1.3132618077011565e-06,-0.06971533300545468,-3.0681688195449253,1.7605527747604352e-07,4.7862416600566195e-05,-5.188479434524091e-08,0.6833162941899319,1.3017689723160968e-05,9.786188404595986,-0.0731796839758562,-0.9973056743478809,0.005111337076801208
1701864892.951784,-4.107746818929928,-3.9230085299655677,0.06571932552259657,0.0348269076246619,0.0012797946386789748,0.9987191415463,-0.03668139773792376,1.3146982067533424e-06,-0.06971494528489358,-3.0681688199644297,1.7492443605441634e-07,4.819706640810621e-05,-5.20847051292389e-08,0.6833119912651645,1.2975576458949796e-05,9.786188593409767,-0.0731796855397556,-0.9973056743713501,0.0051113101069183535
1701864892.9616168,-4.107746842816221,-3.9230085316170595,0.06571947833811896,0.03482671263202856,0.0012797881842159446,0.9987191483518967,-0.03668139780204281,1.3161274090964986e-06,-0.06971455485142489,-3.068168820385666,1.7401484164214165e-07,4.853430461320835e-05,-5.230006189681452e-08,0.6833075741429548,1.3015264324857873e-05,9.786188803485063,-0.07317968711578356,-0.9973056743949837,0.005111282931207673
1701864892.9737248,-4.107746866857444,-3.923008533280246,0.06571963226045169,0.034826516276479265,0.0012797816767833562,0.9987191552050231,-0.03668139786688946,1.3175508518715736e-06,-0.06971416168841728,-3.068168820808735,1.7328302790420184e-07,4.8873610244517534e-05,-5.252782792850732e-08,0.6833031482853065,1.305478560809159e-05,9.786189031082369,-0.07317968870392466,-0.9973056744187815,0.005111255549878355
1701864892.9914706,-4.10774689105431,-3.923008534955104,0.06571978728740996,0.034826318551358246,0.0012797751167131686,0.99871916210591,-0.03668139793245237,1.3189696906153916e-06,-0.06971376578258444,-3.0681688212337175,1.7269416374931513e-07,4.9214567474352285e-05,-5.2765564636997077e-08,0.6832988188846238,1.3013109837559e-05,9.786189273119732,-0.07317969030416707,-0.9973056744427434,0.005111227963104977
1701864892.9914706,-4.107746915407356,-3.9230085366416128,0.06571994341724516,0.03482611945130946,0.0012797685042634243,0.9987191690547438,-0.03668139799872226,1.3203848370192554e-06,-0.06971336712323407,-3.0681688216606764,1.722180791891612e-07,4.9556853856615964e-05,-5.3011179451130997e-08,0.6832943347904374,1.308008884678224e-05,9.786189527033345,-0.07317969191650148,-0.9973056744668697,0.005111200171009851
1701864893.0115497,-4.107746939916978,-3.923008538339752,0.06572010064855979,0.03482591897208188,0.0012797618396494137,0.9987191760516718,-0.036681398065692,1.3217970356591243e-06,-0.06971296570188053,-3.068168822089663,1.7183410665278607e-07,4.9900195076943985e-05,-5.326321574359785e-08,0.6832899800739689,1.303858403875541e-05,9.786189791000591,-0.0731796935409202,-0.99730567449116,0.00511117217371101
1701864893.0231652,-4.107746964583461,-3.9230085400495054,0.06572025898023498,0.0348257171102425,0.0012797551230357073,0.9987191830968126,-0.036681398133355594,1.32320686924025e-06,-0.06971256151167039,-3.0681688225207187,1.715222171314943e-07,5.0244388232175136e-05,-5.352028718296869e-08,0.6832855037266466,1.3078770373808981e-05,9.786190063288627,-0.07317969517741725,-0.9973056745156147,0.005111143971285205
1701864893.0414596,-4.107746989406999,-3.9230085417708556,0.06572041841137627,0.034825513863059515,0.0012797483545574824,0.9987191901902609,-0.03668139820170819,1.324614809908292e-06,-0.06971215454715042,-3.0681688229538757,1.7126873387771124e-07,5.05892592835496e-05,-5.378143628714756e-08,0.6832810118551503,1.3118765525539881e-05,9.786190342733377,-0.07317969682598725,-0.9973056745402334,0.005111115563801925
1701864893.051926,-4.107747014387712,-3.9230085435037862,0.06572057894126859,0.03482530922835793,0.0012797415343260505,0.9987191973320918,-0.036681398270746214,1.326021240933109e-06,-0.06971174480397913,-3.0681688233891613,1.710626669561853e-07,5.09346700133277e-05,-5.404588843467337e-08,0.6832766103626073,1.3077497293396412e-05,9.78619062831296,-0.07317969848662632,-0.9973056745650166,0.005111086951323887
1701864893.0619378,-4.107747039525668,-3.923008545248283,0.0657207405693389,0.034825103204367276,0.0012797346624228653,0.9987192045223657,-0.036681398340466555,1.3274264559801227e-06,-0.06971133227862189,-3.068168823826596,1.708929261641406e-07,5.128052012640151e-05,-5.431288267155156e-08,0.6832720486589889,1.3144841942820021e-05,9.786190919111766,-0.0731797001593314,-0.9973056745899637,0.005111058133883831
1701864893.0714614,-4.107747064820881,-3.92300854700433,0.06572090329513004,0.034824895789705795,0.001279727738921892,0.9987192117611304,-0.03668139841086657,1.3288307050711355e-06,-0.06971091696832081,-3.068168824266196,1.707541151557676e-07,5.16267130708831e-05,-5.4582028216798474e-08,0.6832676112963556,1.3103675982728802e-05,9.786191214627557,-0.07317970184409898,-0.997305674615075,0.005111029111528067
1701864893.085527,-4.107747090273336,-3.9230085487719144,0.06572106711827527,0.034824686983236486,0.001279720763874583,0.9987192190484245,-0.036681398481944696,1.3302341750485426e-06,-0.06971049887080594,-3.0681688247079757,1.7063842024340075e-07,5.197318819539285e-05,-5.485279137897575e-08,0.6832630477855013,1.3144139501342015e-05,9.786191514184688,-0.073179703540928,-0.9973056746403506,0.005110999884275932
1701864893.0965488,-4.107747115882985,-3.923008550551023,0.06572123203848182,0.034824476784064785,0.001279713737325592,0.9987192263842783,-0.03668139855369917,1.33163702130895e-06,-0.06971007798429157,-3.0681688251519454,1.705419477865041e-07,5.2319885295836766e-05,-5.512489749261347e-08,0.68325846455791,1.3184421435932943e-05,9.7861918174645,-0.07317970524981615,-0.9973056746657905,0.005110970452150946
1701864893.1015549,-4.107747141649753,-3.9230085523416403,0.06572139805551572,0.034824265191485924,0.0012797066593137863,0.9987192337687155,-0.03668139862612864,1.3330393736555952e-06,-0.06970965430737121,-3.068168825598114,1.704615332628641e-07,5.266675723778551e-05,-5.539811795342436e-08,0.6832539679700345,1.3143379600054844e-05,9.786192124123206,-0.0731797069707615,-0.9973056746913943,0.005110940815178993
1701864893.1175854,-4.107747167573554,-3.923008554143755,0.06572156516918896,0.034824052204905906,0.0012796995298626334,0.998719241201756,-0.036681398699232225,1.334441322871492e-06,-0.06970922783885869,-3.0681688260464877,1.7039234934357753e-07,5.3013776620918876e-05,-5.567212904610168e-08,0.6832493076885008,1.3210942496585416e-05,9.786192433789283,-0.0731797087037635,-0.9973056747171625,0.005110910973363365
1701864893.1231081,-4.107747193654278,-3.9230085559573533,0.06572173337935226,0.0348238378238844,0.001279692348999686,0.9987192486834142,-0.036681398773009036,1.3358429566013074e-06,-0.06970879857787551,-3.0681688264970726,1.703340094278154e-07,5.336090521723972e-05,-5.594688971014078e-08,0.6832447686120774,1.3169987718021675e-05,9.786192746393414,-0.07317971044882053,-0.9973056747430948,0.005110880926726759
1701864893.1336868,-4.107747219891811,-3.9230085577824227,0.06572190268588503,0.034823622048034165,0.0012796851167382307,0.9987192562137026,-0.03668139884745842,1.3372443300031403e-06,-0.06970836652364827,-3.068168826949873,1.702824914073593e-07,5.37081299544041e-05,-5.622213328156637e-08,0.6832400648744067,1.3237618441426636e-05,9.78619306160151,-0.07317971220593213,-0.9973056747691915,0.005110850675267281
1701864893.1517472,-4.1077472462860225,-3.92300855961895,0.06572207308869196,0.03482340487708018,0.0012796778330976697,0.9987192637926301,-0.03668139892257992,1.3386455022007715e-06,-0.06970793167562847,-3.068168827404892,1.702382902351016e-07,5.4055422874713074e-05,-5.649788022689918e-08,0.6832354814406775,1.319668941229171e-05,9.786193379428529,-0.0731797139750972,-0.9973056747954521,0.005110820219003491
1701864893.1617055,-4.10774727283678,-3.923008561466923,0.06572224458769582,0.0348231863107711,0.0012796704980857858,0.9987192714202043,-0.036681398998372874,1.340046507324968e-06,-0.06970749403331407,-3.068168827862134,1.701983088138917e-07,5.440277820265318e-05,-5.677392592893196e-08,0.6832307680854609,1.3237409419010668e-05,9.786193699609234,-0.07317971575631506,-0.997305674821877,0.005110789557932474
1701864893.1717224,-4.107747299543941,-3.923008563326329,0.06572241718283531,0.034822966348921035,0.0012796631117122828,0.9987192790964311,-0.036681399074837286,1.3414473784861782e-06,-0.06970705359633411,-3.068168828321599,1.7016242650124784e-07,5.4750179640443514e-05,-5.705025906814598e-08,0.6832260316616344,1.3277874983541447e-05,9.786194022156314,-0.07317971754958576,-0.9973056748484661,0.005110758692059977
1701864893.182098,-4.107747326407358,-3.923008565197155,0.06572259087406174,0.03482274499139238,0.001279655673988056,0.9987192868213141,-0.03668139915197249,1.3428481476728005e-06,-0.06970661036441425,-3.0681688287832904,1.7013050018704035e-07,5.5097615189331285e-05,-5.732686198221293e-08,0.6832213787190856,1.3237045426335027e-05,9.78619434698736,-0.07317971935490769,-0.9973056748752196,0.005110727621397626
1701864893.201518,-4.107747353426883,-3.9230085670793904,0.06572276566133517,0.03482252223804491,0.0012796481849141838,0.9987192945948573,-0.03668139922977848,1.3442488273618145e-06,-0.06970616433727422,-3.0681688292472087,1.7010011832864452e-07,5.5445085569451436e-05,-5.7603579553506404e-08,0.6832165592431991,1.330477658001739e-05,9.786194673943832,-0.07317972117228132,-0.9973056749021371,0.005110696345937295
1701864893.2116385,-4.107747380602362,-3.9230085689730205,0.06572294154462482,0.03482229808880144,0.0012796406445003093,0.9987193024170625,-0.036681399308255036,1.3456494425558413e-06,-0.06970571551476042,-3.068168829713356,1.7007283102811137e-07,5.579257505011867e-05,-5.788050579941142e-08,0.6832118583548104,1.326397134786961e-05,9.786195003126432,-0.07317972300170571,-0.9973056749292186,0.005110664865692561
1701864893.2267625,-4.107747407933639,-3.9230085708780345,0.06572311852390504,0.03482207254356886,0.0012796330527464089,0.998719310287932,-0.036681399387401704,1.347050000087245e-06,-0.06970526389668669,-3.0681688301817327,1.7004638577945105e-07,5.6140087665126136e-05,-5.8157495069012716e-08,0.6832070260110436,1.3304769129044768e-05,9.786195334345283,-0.07317972484318024,-0.9973056749564645,0.005110633180656516
1701864893.2317762,-4.107747435420555,-3.9230085727944197,0.06572329659915578,0.03482184560228797,0.0012796254096559276,0.998719318207467,-0.03668139946721896,1.3484505111748874e-06,-0.06970480948293498,-3.068168830652339,1.7002133448009373e-07,5.648761495808576e-05,-5.8434582992407583e-08,0.6832021691152753,1.3345337482523562e-05,9.786195667672068,-0.07317972669670574,-0.9973056749838746,0.005110601290831733
1701864893.2455652,-4.107747463062951,-3.923008574722163,0.06572347577036136,0.03482161726492247,0.0012796177152347627,0.9987193261756677,-0.036681399547706106,1.3498509903403271e-06,-0.0697043522734332,-3.0681688311251762,1.6999807573130974e-07,5.683515121788953e-05,-5.871178972972085e-08,0.6831973944151599,1.3304575721073195e-05,9.786196003072703,-0.07317972856228032,-0.997305675011449,0.005110569196227263
1701864893.256625,-4.107747490860668,-3.9230085766612532,0.06572365603750828,0.03482138753141327,0.0012796099694799856,0.9987193341925352,-0.03668139962886337,1.3512514360494264e-06,-0.06970389226806299,-3.0681688316002447,1.699746294585155e-07,5.718270218282862e-05,-5.8988990172601376e-08,0.6831924519673628,1.3372384132212321e-05,9.786196340426947,-0.07317973043990482,-0.9973056750391873,0.005110536896832942
1701864893.2715707,-4.10774751881354,-3.923008578611677,0.06572383740058686,0.03482115640174804,0.0012796021723980272,0.998719342258069,-0.03668139971069033,1.352651862109474e-06,-0.06970342946680028,-3.068168832077545,1.6995289024875974e-07,5.753025614336073e-05,-5.92663025742576e-08,0.6831876269588348,1.3331654468886164e-05,9.786196679869356,-0.07317973232957775,-0.9973056750670899,0.005110504392660673
1701864893.2815616,-4.107747546921409,-3.9230085805734234,0.06572401985958819,0.03482092387588204,0.001279594323985274,0.9987193503722697,-0.03668139979318717,1.354052264558765e-06,-0.06970296386955536,-3.068168832557077,1.6993066224449554e-07,5.7877821254455644e-05,-5.9543587629022255e-08,0.6831826338746619,1.339949496232818e-05,9.786197021223888,-0.0731797342312998,-0.9973056750951568,0.005110471683699963
1701864893.293429,-4.107747575184107,-3.9230085825464793,0.06572420341450633,0.03482068995381434,0.0012795864242475976,0.9987193585351364,-0.03668139987635394,1.3554526552152343e-06,-0.0697024954763269,-3.068168833038841,1.6990989912919743e-07,5.822538653480814e-05,-5.982096763380055e-08,0.6831777579625621,1.3358749103074488e-05,9.786197364637555,-0.07317973614507038,-0.9973056751233879,0.0051104387699624654
1701864893.3019326,-4.107747603601473,-3.9230085845308325,0.06572438806533543,0.0348204546355129,0.0012795784731819554,0.9987193667466692,-0.036681399960190375,1.3568530303554146e-06,-0.06970202428705068,-3.068168833522837,1.698886731843489e-07,5.857295979953397e-05,-6.009831964561466e-08,0.683172749207106,1.3399656959584987e-05,9.786197709949821,-0.0731797380708892,-0.997305675151783,0.0051104056514397304
1701864893.3218083,-4.107747632173342,-3.923008586526471,0.06572457381207138,0.03482021792096731,0.0012795704707893845,0.9987193750068674,-0.03668140004469624,1.3582533928329717e-06,-0.06970155030170595,-3.0681688340090663,1.6986779867492438e-07,5.892053562469752e-05,-6.037569755796733e-08,0.6831677147540623,1.3440275376778042e-05,9.786198057257039,-0.07317974000875559,-0.9973056751803425,0.00511037232813304
1701864893.3253791,-4.107747660899548,-3.9230085885333823,0.0657247606547112,0.03481997981018042,0.0012795624170738422,0.9987193833157298,-0.03668140012987184,1.3596537503341035e-06,-0.06970107352029885,-3.0681688344975275,1.6984788048251355e-07,5.926811071320448e-05,-6.065313586517067e-08,0.6831627613233082,1.3399589327971595e-05,9.786198406545909,-0.0731797419586695,-0.9973056752090661,0.005110338800050515
1701864893.351695,-4.107747689779929,-3.9230085905515546,0.06572494859325152,0.034819740303124375,0.0012795543120308578,0.9987193916732567,-0.036681400215717086,1.3610540959569852e-06,-0.06970059394277338,-3.068168834988221,1.698271069025602e-07,5.961569274571449e-05,-6.093052134766638e-08,0.683157639135078,1.346746461927668e-05,9.786198757710531,-0.07317974392063115,-0.9973056752379539,0.005110305067181181
1701864893.3617303,-4.107747718814316,-3.9230085925809752,0.06572513762769082,0.03481949939981188,0.001279546155665629,0.9987194000794465,-0.03668140030223178,1.3624544391815392e-06,-0.06970011156915543,-3.0681688354811474,1.6980750653393915e-07,5.996327156880568e-05,-6.120798143218314e-08,0.6831526334627818,1.342677479849361e-05,9.786199110899389,-0.07317974589463946,-0.9973056752670061,0.005110271129536317
1701864893.373701,-4.107747748002547,-3.923008594621632,0.06572532775802678,0.0348192571002218,0.0012795379479745767,0.9987194085342989,-0.03668140038941596,1.3638547743879797e-06,-0.0696996263994025,-3.0681688359763064,1.6978721129159102e-07,6.0310855669214964e-05,-6.148539731300746e-08,0.6831474944329928,1.3467693437328797e-05,9.78619946595565,-0.07317974788069458,-0.9973056752962222,0.005110236987107221
1701864893.3817039,-4.107747777344454,-3.923008596673513,0.06572551898425814,0.034819013404352527,0.001279529688958305,0.9987194170378129,-0.03668140047726936,1.365255102915786e-06,-0.06969913843351151,-3.0681688364736988,1.6976708012071806e-07,6.0658440159219885e-05,-6.176282608147173e-08,0.6831423291278516,1.3508357964646257e-05,9.786199822981086,-0.07317974987879579,-0.9973056753256025,0.005110202639894954
1701864893.3916647,-4.107747806839873,-3.9230085987366055,0.06572571130638416,0.03481876831221377,0.0012795213786204282,0.9987194255899873,-0.036681400565792215,1.3666554312647607e-06,-0.06969864767150219,-3.068168836973324,1.6974775722708576e-07,6.100602218359259e-05,-6.204030489197367e-08,0.6831372444141903,1.3467694879139997e-05,9.786200181964555,-0.07317975188894305,-0.9973056753551471,0.005110168087907459
1701864893.4052854,-4.107747836488638,-3.9230086008108978,0.0657259047244033,0.03481852182378335,0.0012795130169562003,0.9987194341908215,-0.03668140065498453,1.3680557515557933e-06,-0.06969815411332995,-3.068168837475181,1.6972745901475914e-07,6.135360976560184e-05,-6.231772250317242e-08,0.6831319904706368,1.3535594950334126e-05,9.786200542806883,-0.07317975391113656,-0.9973056753848559,0.005110133331133613
1701864893.4233506,-4.107747866290581,-3.923008602896377,0.06572609923831546,0.03481827393907843,0.0012795046039705896,0.9987194428403143,-0.03668140074484608,1.3694560724841063e-06,-0.06969765775902952,-3.0681688379792718,1.6970823718674134e-07,6.170119302524921e-05,-6.25952079093927e-08,0.6831268526315891,1.3494937173757689e-05,9.786200905655946,-0.07317975594537521,-0.9973056754147288,0.005110098369584579
1701864893.4318924,-4.107747896245542,-3.9230086049930324,0.06572629484811952,0.03481802465808142,0.0012794961396598444,0.998719451538465,-0.03668140083537688,1.3708563878238928e-06,-0.06969715860856554,-3.068168838485595,1.696882447764637e-07,6.204878067340687e-05,-6.287264388923606e-08,0.6831215810962686,1.3535864287943956e-05,9.786201270358807,-0.07317975799165918,-0.9973056754447661,0.005110063203251569
1701864893.441626,-4.1077479263533485,-3.9230086071008503,0.06572649155381512,0.0348177739807936,0.001279487624024427,0.9987194602852725,-0.03668140092657669,1.3722566984159902e-06,-0.06969665666194065,-3.0681688389941515,1.6966835506792246e-07,6.239636800542002e-05,-6.315008835923955e-08,0.6831162829141767,1.3576564048386907e-05,9.786201637017875,-0.07317976004998773,-0.9973056754749676,0.005110027832135564
1701864893.4616168,-4.107747956613839,-3.9230086092198184,0.06572668935540227,0.03481752190722697,0.0012794790570678373,0.9987194690807355,-0.036681401018445935,1.3736570103506788e-06,-0.0696961519191792,-3.0681688395049407,1.6964922447453004e-07,6.274395230114006e-05,-6.342757955945789e-08,0.6831110650116283,1.3535910078581248e-05,9.786202005626247,-0.07317976212036116,-0.997305675505333,0.00510999225624446
1701864893.471676,-4.107747987026846,-3.9230086113499256,0.06572688825288002,0.034817268437361173,0.0012794704387852412,0.9987194779248536,-0.03668140111098421,1.3750573154667059e-06,-0.0696956443802402,-3.0681688400179628,1.6962908017761928e-07,6.30915417004269e-05,-6.37050068468156e-08,0.6831056775951989,1.3603826667132312e-05,9.786202376082827,-0.07317976420277887,-0.9973056755358628,0.005109956475567069
1701864893.4916158,-4.107748017592202,-3.9230086134911586,0.06572708824624876,0.034817013571214826,0.0012794617691815383,0.998719486817625,-0.03668140120419149,1.3764576221980167e-06,-0.0696951340451613,-3.0681688405332177,1.696099815458415e-07,6.343912641198272e-05,-6.398249986838186e-08,0.6831004060015692,1.3563197360858503e-05,9.786202748538633,-0.0731797662972402,-0.9973056755665567,0.005109920490114534
1701864893.506572,-4.107748048309745,-3.9230086156435062,0.0657272893355076,0.03481675730876795,0.001279453048251883,0.9987194957590494,-0.03668140129806804,1.3778579222890212e-06,-0.06969462091390227,-3.0681688410507055,1.695898631249985e-07,6.378671612452275e-05,-6.425992853973585e-08,0.6830949648379696,1.36311221211886e-05,9.786203122833351,-0.07317976840374579,-0.997305675597415,0.005109884299875719
1701864893.5268486,-4.107748079179305,-3.9230086178069548,0.06572749152065704,0.03481649965003946,0.0012794442760011677,0.998719504749125,-0.03668140139261334,1.3792582241719254e-06,-0.06969410498650137,-3.0681688415704262,1.695707859001961e-07,6.413430108594508e-05,-6.453742260299252e-08,0.6830896394687138,1.3590467110582255e-05,9.786203499122644,-0.07317977052229403,-0.9973056756284372,0.005109847904861735
1701864893.5419054,-4.107748110200719,-3.923008619981494,0.06572769480169638,0.03481624059501317,0.0012794354524255603,0.9987195137878513,-0.036681401487827905,1.3806585213222606e-06,-0.06969358626292603,-3.0681688420923794,1.6955090572688422e-07,6.448189009561444e-05,-6.481486496156477e-08,0.6830841800225712,1.3631441066776834e-05,9.786203877256746,-0.073179772652886,-0.9973056756596237,0.00510981130506377
1701864893.5515308,-4.10774814137382,-3.9230086221671105,0.0657278991786256,0.03481598014369139,0.0012794265775254747,0.9987195228752271,-0.03668140158371124,1.3820588144260982e-06,-0.06969306474318096,-3.068168842616566,1.6953110685741013e-07,6.482947851517619e-05,-6.509231432095268e-08,0.6830786936979489,1.367212901038195e-05,9.786204257339353,-0.0731797747955205,-0.9973056756909745,0.005109774500482774
1701864893.571954,-4.107748172698441,-3.9230086243637916,0.06572810465144505,0.03481571829608704,0.0012794176513043674,0.998719532011251,-0.03668140168026337,1.383459109444601e-06,-0.06969254042729237,-3.068168843142985,1.6951204752428433e-07,6.517706367994726e-05,-6.536980901469264e-08,0.6830732873283906,1.36315115319865e-05,9.786204639364616,-0.07317977695019699,-0.9973056757224894,0.005109737491126589
1701864893.5865269,-4.107748204174419,-3.923008626571526,0.06572831122015396,0.034815455052180456,0.0012794086737573597,0.9987195411959224,-0.03668140177748453,1.3848593980330603e-06,-0.0696920133152206,-3.0681688436716374,1.6949195766156814e-07,6.552465377370935e-05,-6.564723867601111e-08,0.6830677112231195,1.3699438042889529e-05,9.786205023230986,-0.07317977911691614,-0.9973056757541686,0.005109700276984038
1701864893.6016462,-4.107748235801584,-3.923008628790301,0.06572851888475291,0.03481519041199083,0.0012793996448893308,0.9987195504292398,-0.03668140187537446,1.3862596885584696e-06,-0.06969148340700451,-3.068168844202522,1.6947290289315705e-07,6.587223904026239e-05,-6.592473327181101e-08,0.6830622507257321,1.3658810494011568e-05,9.786205409090943,-0.0731797812956768,-0.9973056757860119,0.005109662858066242
1701864893.6132038,-4.107748267579774,-3.923008631020105,0.06572872764524128,0.03481492437550224,0.001279390564696441,0.9987195597112023,-0.0366814019739332,1.387659974495928e-06,-0.069690950702612,-3.06816884473564,1.694530409924045e-07,6.621982829314011e-05,-6.620217583676201e-08,0.683056656065951,1.3699766897833605e-05,9.78620579679184,-0.07317978348647912,-0.9973056758180194,0.0051096252343643565
1701864893.6267872,-4.107748299508822,-3.923008633260925,0.06572893750161914,0.03481465694271718,0.0012793814331790861,0.9987195690418089,-0.036681402073160736,1.3890602564471678e-06,-0.06969041520204823,-3.0681688452709905,1.6943325453939733e-07,6.656741690652043e-05,-6.647962503741765e-08,0.6830510343471535,1.3740486800929196e-05,9.786206186438607,-0.07317978568932278,-0.9973056758501911,0.00510958740587935
1701864893.631804,-4.107748331588559,-3.9230086355127485,0.06572914845388685,0.03481438811364874,0.0012793722503407204,0.998719578421058,-0.03668140217305705,1.3904605403594394e-06,-0.06968987690533966,-3.0681688458085734,1.6941420521759044e-07,6.691500222703429e-05,-6.675711940300766e-08,0.6830454924997605,1.369986044921463e-05,9.786206578025347,-0.07317978790420725,-0.9973056758825272,0.005109549372619063
1701864893.6619477,-4.107748363818823,-3.923008637775565,0.06572936050204371,0.034814117888277374,0.0012793630161764588,0.9987195878489491,-0.03668140227362194,1.3918608178967305e-06,-0.06968933581244695,-3.0681688463483896,1.6939412269495282e-07,6.726259244202538e-05,-6.703454854219326e-08,0.6830397808180723,1.3767797044542218e-05,9.786206971449454,-0.07317979013113227,-0.9973056759150272,0.005109511134572284
1701864893.6718795,-4.107748396199446,-3.923008640049361,0.06572957364609032,0.03481384626662238,0.0012793537306911777,0.9987195973254804,-0.03668140237485539,1.3932610973956026e-06,-0.06968879192340911,-3.0681688468904387,1.6937507358830974e-07,6.761017780714262e-05,-6.731204249799512e-08,0.683034184608261,1.3727183529104922e-05,9.78620736686642,-0.07317979237009717,-0.9973056759476916,0.005109472691750152
1701864893.681903,-4.107748428730264,-3.923008642334125,0.065729787886026,0.034813573248664305,0.0012793443938799993,0.9987196068506515,-0.03668140247675743,1.3946613705135233e-06,-0.06968824523818698,-3.06816884743472,1.69354992308236e-07,6.795776804030601e-05,-6.758947130592405e-08,0.6830284185382217,1.3795132027939265e-05,9.786207764113326,-0.07317979462110216,-0.99730567598052,0.005109434044141499
1701864893.7019007,-4.1077484614111075,-3.923008644629843,0.06573000322185134,0.03481329883442247,0.001279335005747798,0.9987196164244605,-0.036681402579328025,1.3960616455805316e-06,-0.06968769575681961,-3.0681688479812346,1.6933594323949675e-07,6.830535341566214e-05,-6.786696489784818e-08,0.683022767989133,1.37544870220029e-05,9.786208163349498,-0.07317979688414651,-0.9973056760135127,0.005109395191757453
1701864893.7115963,-4.107748494241814,-3.9230086469365046,0.06573021965356576,0.03481302302388102,0.001279325566290723,0.9987196260469069,-0.036681402682567185,1.397461916046949e-06,-0.06968714347927511,-3.068168848529982,1.6931608432851333e-07,6.865294275835565e-05,-6.814440622723241e-08,0.6830169830815591,1.3795480096968715e-05,9.78620856442415,-0.07317979915923038,-0.9973056760466695,0.00510935613458916
1701864893.723184,-4.107748527222217,-3.9230086492540974,0.06573043718116936,0.034812745817042585,0.001279316075509175,0.9987196357179894,-0.036681402786474714,1.39886218252755e-06,-0.06968658840555886,-3.0681688490809615,1.6929630046024958e-07,6.900053143849575e-05,-6.842185420757117e-08,0.683011171090534,1.383617910245683e-05,9.786208967441423,-0.07317980144635301,-0.9973056760799909,0.005109316872637584
1701864893.7367656,-4.107748560352149,-3.9230086515826086,0.06573065580466249,0.03481246721392025,0.0012793065334065963,0.9987196454377062,-0.036681402891050804,1.400262450929588e-06,-0.06968603053569732,-3.068168849634174,1.692772509843345e-07,6.93481168137261e-05,-6.869934713243078e-08,0.6830054388329659,1.379557718417431e-05,9.786209372395861,-0.07317980374551428,-0.997305676113476,0.005109277405910563
1701864893.7417738,-4.107748593631446,-3.9230086539220266,0.06573087552404448,0.03481218721449454,0.0012792969399781037,0.9987196552060572,-0.036681402996295236,1.4016627129183585e-06,-0.06968546986965131,-3.0681688501896196,1.6925716819527693e-07,6.969570707124448e-05,-6.897677481095612e-08,0.6829995366437001,1.3863514019233052e-05,9.786209779186471,-0.07317980605671393,-0.9973056761471256,0.005109237734396893
1701864893.7564697,-4.10774862705994,-3.9230086562723385,0.06573109633931595,0.034811905818784794,0.0012792872952285658,0.9987196650230402,-0.03668140310220802,1.403062976809118e-06,-0.06968490640745992,-3.0681688507472975,1.6923811670616864e-07,7.00432924688597e-05,-6.925426719117594e-08,0.6829937498690455,1.3822893492819354e-05,9.78621018796779,-0.07317980837995128,-0.9973056761809392,0.005109197858107702
1701864893.771513,-4.107748660637467,-3.923008658633533,0.06573131825047634,0.034811623026775165,0.0012792775991541444,0.9987196748886548,-0.036681403208788925,1.4044632360921846e-06,-0.06968434014909126,-3.0681688513072087,1.6921825701964712e-07,7.03908818258571e-05,-6.953170749586866e-08,0.6829878287611124,1.3863868248077943e-05,9.786210598584821,-0.07317981071522596,-0.9973056762149172,0.005109157777034133
1701864893.7765334,-4.107748694363862,-3.923008661005597,0.06573154125752571,0.034811338838468264,0.001279267851755228,0.9987196848028995,-0.036681403316038405,1.4058634913127762e-06,-0.06968377109455068,-3.068168851869352,1.6919847029680502e-07,7.073847052098478e-05,-6.980915421579209e-08,0.6829818804593678,1.3904586103584144e-05,9.786211011144431,-0.07317981306253861,-0.9973056762490594,0.0051091174911771795
1701864893.7916217,-4.107748728238956,-3.9230086633885186,0.06573176536046445,0.03481105325387727,0.001279258053035259,0.9987196947657728,-0.0366814034239558,1.4072637484329218e-06,-0.06968319924386486,-3.068168852433728,1.6917941794575446e-07,7.108605590476121e-05,-7.008664597130931e-08,0.6829760118811994,1.3863980547531962e-05,9.786211425639417,-0.0731798154218873,-0.9973056762833655,0.005109077000544625
1701864893.804727,-4.107748762262586,-3.923008665782286,0.06573199055929187,0.03481076627298263,0.0012792482029893618,0.9987197047772742,-0.036681403532541526,1.4086639990931382e-06,-0.06968262459699441,-3.068168853000337,1.6915933295201363e-07,7.143364617075052e-05,-7.036407247577047e-08,0.682969973315,1.3931918126016602e-05,9.786211841970774,-0.0731798177932731,-0.9973056763178362,0.005109036305125312
1701864893.8167598,-4.107748796434584,-3.9230086681868865,0.06573221685400861,0.03481047789580373,0.0012792383016223977,0.9987197148374017,-0.03668140364179538,1.410064251604334e-06,-0.06968204715397856,-3.0681688535691785,1.691402785554701e-07,7.178123157249743e-05,-7.064156366715828e-08,0.6829640501332757,1.3891306616878544e-05,9.786212260290162,-0.07317982017669486,-0.9973056763524707,0.005108995404930352
1701864893.8233042,-4.107748830754787,-3.9230086706023077,0.06573244424461407,0.034810188122324726,0.001279228348930526,0.9987197249461549,-0.036681403751717384,1.4114644994363963e-06,-0.06968146691478543,-3.0681688541402528,1.6912041509439517e-07,7.212882093256342e-05,-7.091900266788108e-08,0.6829579926114319,1.3932267945773965e-05,9.786212680445017,-0.0731798225721527,-0.9973056763872697,0.005108954299950898
1701864893.836575,-4.107748865223026,-3.9230086730285385,0.06573267273110833,0.03480989695254823,0.0012792183449141412,0.9987197351035321,-0.03668140386230726,1.4128647431958405e-06,-0.06968088387942033,-3.0681688547135595,1.6910062582087137e-07,7.247640963151541e-05,-7.119644824480869e-08,0.6829519078102065,1.3973006956359181e-05,9.786213102542124,-0.07317982497964584,-0.9973056764222327,0.005108912990187901
1701864893.8415837,-4.107748899839136,-3.9230086754655655,0.0657329023134918,0.034809604386487426,0.001279208289576686,0.9987197453095319,-0.036681403973565285,1.41426498877905e-06,-0.06968029804791,-3.068168855289099,1.6908157059012672e-07,7.28239950146601e-05,-7.147393877008274e-08,0.6829459027550921,1.393238743826634e-05,9.786213526573293,-0.0731798273991742,-0.9973056764573601,0.00510887147564921
1701864893.8520715,-4.107748934602954,-3.9230086779133777,0.06573313299176381,0.03480931042412279,0.0012791981829132796,0.9987197555641536,-0.03668140408549122,1.4156652278595835e-06,-0.06967970942021508,-3.0681688558668707,1.6906148245974781e-07,7.317158528098684e-05,-7.175136411403778e-08,0.6829397276578947,1.4000336440556754e-05,9.786213952440407,-0.07317982983073747,-0.9973056764926517,0.00510882975632362
1701864893.8717513,-4.10774896951431,-3.9230086803719613,0.06573336476592494,0.03480901506547366,0.0012791880249287877,0.9987197658673954,-0.036681404198085035,1.4170654687500871e-06,-0.06967911799637472,-3.0681688564468756,1.6904242468201112e-07,7.35191706835283e-05,-7.202885402604016e-08,0.6829336679360487,1.395972516105565e-05,9.78621438029361,-0.07317983227433492,-0.9973056765281072,0.005108787832222249
1701864893.8815749,-4.107749004573042,-3.9230086828413055,0.0657335976359745,0.03480871831052062,0.0012791778156183396,0.9987197762192568,-0.03668140431134699,1.418465703101949e-06,-0.06967852377634981,-3.0681688570291126,1.6902233624175857e-07,7.386676094545059e-05,-7.230627892411906e-08,0.6829274381938637,1.4027682417461386e-05,9.786214809975775,-0.07317983472996724,-0.9973056765637273,0.00510874570333396
1701864893.8916283,-4.10774903977898,-3.9230086853213972,0.06573383160191315,0.034808420159283024,0.0012791675549868005,0.9987197866197357,-0.0366814044252764,1.4198659392708534e-06,-0.06967792676017952,-3.068168857613583,1.6900327787850066e-07,7.421434634273337e-05,-7.258376844092725e-08,0.6829213238510612,1.3987050649751073e-05,9.786215241642463,-0.07317983719763234,-0.9973056765995112,0.005108703369669823
1701864893.9017696,-4.107749075131962,-3.9230086878122243,0.06573406666374026,0.034808120611745055,0.0012791572430303265,0.9987197970688315,-0.0366814045398737,1.4212661706858245e-06,-0.06967732694783196,-3.0681688582002855,1.689834101968387e-07,7.456193569894514e-05,-7.286120578194786e-08,0.6829150750624456,1.4028041002470513e-05,9.786215675144865,-0.07317983967733119,-0.9973056766354594,0.005108660831221022
1701864893.906821,-4.107749110631821,-3.9230086903137753,0.06573430282145598,0.03480781966790933,0.0012791468797493102,0.9987198075665429,-0.03668140465513894,1.4226663979303375e-06,-0.06967672433931255,-3.06816885878922,1.6896361612851286e-07,7.490952439008551e-05,-7.31386496464426e-08,0.6829087990577339,1.4068752470404301e-05,9.786216110587239,-0.07317984216906354,-0.9973056766715721,0.005108618087988522
1701864893.9153464,-4.10774914627839,-3.9230086928260373,0.06573454007506065,0.03480751732778899,0.001279136465147193,0.9987198181128679,-0.03668140477107162,1.4240666269529418e-06,-0.06967611893464785,-3.0681688593803877,1.6894455613131797e-07,7.525710977214073e-05,-7.341613844204701e-08,0.6829026026978299,1.4028148640537433e-05,9.786216547964525,-0.07317984467282783,-0.9973056767078486,0.005108575139980117
1701864893.923399,-4.107749182071506,-3.9230086953489987,0.06573477842455358,0.03480721359136453,0.0012791259992191043,0.9987198287078063,-0.036681404887672214,1.4254668493954645e-06,-0.06967551073379866,-3.0681688599737877,1.689244653321228e-07,7.560470003080591e-05,-7.369356216598108e-08,0.6828962363261802,1.409609539774244e-05,9.786216987174942,-0.07317984718862518,-0.9973056767442896,0.00510853198718467
1701864893.9417496,-4.107749218011001,-3.923008697882647,0.06573501786993541,0.03480690845865529,0.0012791154819699003,0.998719839351356,-0.03668140500494024,1.4268670735844607e-06,-0.06967489973680403,-3.0681688605694206,1.6890540310057626e-07,7.595228543108668e-05,-7.397105045539162e-08,0.6828899852874964,1.4055484653378455e-05,9.786217428372794,-0.07317984971645396,-0.9973056767808947,0.0051084886296132535
1701864893.9568055,-4.10774925409671,-3.92300870042697,0.06573525841120556,0.03480660192964547,0.0012791049133957376,0.998719850043516,-0.03668140512287575,1.4282672929754748e-06,-0.0696742859436322,-3.068168861167286,1.6888553163466912e-07,7.629987478525423e-05,-7.424848652741473e-08,0.6828835998422983,1.4096453129826115e-05,9.786217871405478,-0.07317985225631422,-0.997305676817664,0.005108445067257019
1701864893.9618845,-4.107749290328468,-3.9230087029819556,0.06573550004836412,0.034806294004337636,0.0012790942934970129,0.9987198607842854,-0.03668140524147895,1.429667508151113e-06,-0.06967366935428844,-3.0681688617673837,1.6886573462829012e-07,7.664746347706012e-05,-7.452592918536241e-08,0.6828771871313647,1.4137183487053739e-05,9.78621831637719,-0.0731798548082062,-0.9973056768545977,0.0051084013001169585
1701864893.9775646,-4.107749326706107,-3.9230087055475913,0.06573574278141145,0.034805984682745,0.0012790836222771682,0.998719871573662,-0.036681405360749604,1.4310677250381875e-06,-0.06967304996879946,-3.068168862369714,1.68846671583242e-07,7.69950488566666e-05,-7.480341681715915e-08,0.6828708540829584,1.409657078402118e-05,9.786218763283385,-0.0731798573721287,-0.9973056768916952,0.005108357328200876
1701864893.9932365,-4.1077493632294635,-3.923008708123865,0.06573598661034688,0.034805673964848016,0.0012790728997313235,0.9987198824116457,-0.03668140548068772,1.4324679352963507e-06,-0.06967242778712597,-3.068168862974276,1.688265762666329e-07,7.734263911697082e-05,-7.508083924576282e-08,0.6828643509985682,1.4164518994335477e-05,9.786219212022713,-0.07317985994808202,-0.9973056769289571,0.005108313151497593
1701864894.0017505,-4.1077493998983705,-3.9230087107107647,0.06573623153517102,0.03480536185066603,0.0012790621258643468,0.998719893298234,-0.036681405601293064,1.4338681472552001e-06,-0.06967180280930704,-3.0681688635810715,1.688075114326088e-07,7.769022451409176e-05,-7.535832636187791e-08,0.6828579632228842,1.4123913699354541e-05,9.78621966274937,-0.07317986253606491,-0.9973056769663833,0.00510826877001821
1701864894.0119913,-4.1077494367126635,-3.9230087133082785,0.0657364775558832,0.03480504834017965,0.001279051300671362,0.9987199042334265,-0.036681405722565875,1.43526835255526e-06,-0.06967117503530368,-3.068168864190099,1.6878741432390856e-07,7.803781476885546e-05,-7.563574828980866e-08,0.6828514054317416,1.4191869336217567e-05,9.786220115300859,-0.07317986513607803,-0.9973056770039735,0.00510822418375158
1701864894.024829,-4.107749473672175,-3.923008715916393,0.06573672467248401,0.03480473343340823,0.001279040424157236,0.9987199152172211,-0.03668140584450593,1.4366685595230845e-06,-0.06967054446515501,-3.0681688648013594,1.687683483405098e-07,7.83854001592943e-05,-7.591323491667937e-08,0.6828449630079401,1.4151234270652166e-05,9.786220569837873,-0.0731798677481202,-0.9973056770417281,0.005108179392708809
1701864894.031898,-4.107749510776742,-3.9230087185350975,0.0657369728849729,0.03480441713033588,0.0012790294963181306,0.9987199262496173,-0.03668140596711323,1.4380687616355226e-06,-0.06966991109882907,-3.0681688654148522,1.687484742253856e-07,7.87329895113212e-05,-7.61906694770638e-08,0.6828383860948315,1.4192237744116683e-05,9.786221026208883,-0.07317987037219147,-0.9973056770796469,0.005108134396881055
1701864894.0415263,-4.107749548026197,-3.923008721164379,0.06573722219334993,0.034804099430965255,0.0012790185171544313,0.9987199373306134,-0.03668140609038775,1.4394689594612686e-06,-0.06966927493633131,-3.068168866030577,1.6872867231773096e-07,7.908057819499573e-05,-7.646811043855526e-08,0.6828317819754749,1.4232940261272549e-05,9.786221484518423,-0.0731798730082915,-0.9973056771177299,0.005108089196269276
1701864894.0561976,-4.107749585420374,-3.9230087238042253,0.06573747259761549,0.03480378033530951,0.0012790074866695846,0.9987199484602077,-0.03668140621432928,1.4408691589393066e-06,-0.06966863597768837,-3.0681688666485347,1.6870960503123318e-07,7.942816356973195e-05,-7.674559642906598e-08,0.6828252574678697,1.419234468164483e-05,9.78622194476198,-0.07317987565641924,-0.9973056771559768,0.00510804379088128
1701864894.0617049,-4.107749622959108,-3.9230087264546247,0.0657377240977689,0.034803459843349135,0.0012789964048587098,0.9987199596383997,-0.03668140633893807,1.4422693517075544e-06,-0.06966799422286094,-3.068168867268725,1.6868950518478256e-07,7.977575382291849e-05,-7.702301717834436e-08,0.6828185629164345,1.4260289471911982e-05,9.786222406838686,-0.07317987831657535,-0.9973056771943882,0.005107998180705905
1701864894.0767276,-4.1077496606422335,-3.923008729115564,0.06573797669381079,0.03480313795510346,0.0012789852717266746,0.9987199708651869,-0.036681406464213875,1.4436695460969125e-06,-0.06966734967188816,-3.068168867891147,1.6867043627515596e-07,8.012333921516922e-05,-7.730050262562267e-08,0.6828119837170725,1.4219672593263593e-05,9.786222870900115,-0.07317988098875863,-0.9973056772329637,0.005107952365754254
1701864894.0915153,-4.1077496984695845,-3.9230087317870326,0.06573823038574055,0.03480281467055665,0.0012789740872696338,0.9987199821405691,-0.03668140659015669,1.4450697355668418e-06,-0.06966670232473818,-3.068168868515802,1.686505579332115e-07,8.047092856505066e-05,-7.757793594028325e-08,0.6828052700579057,1.4260650766820166e-05,9.786223336796793,-0.0731798836729691,-0.9973056772717034,0.005107906346017476
1701864894.1031706,-4.107749736440996,-3.923008734469017,0.06573848517355826,0.03480248998971135,0.0012789628514879789,0.9987199934645445,-0.0366814067167663,1.4464699207129904e-06,-0.06966605218141637,-3.0681688691426894,1.6863075286866249e-07,8.081851724851706e-05,-7.785537573076097e-08,0.6827985291469805,1.4301373401059885e-05,9.786223804631007,-0.07317988636920603,-0.9973056773106074,0.005107860121496518
1701864894.1118164,-4.107749774556302,-3.923008737161505,0.06573874105726434,0.034802163912580675,0.001278951564385156,0.9987200048371114,-0.036681406844042926,1.447870107444345e-06,-0.06966539924194937,-3.068168869771809,1.68611682804676e-07,8.116610262284054e-05,-7.81328605443675e-08,0.6827918678630226,1.4260770910257521e-05,9.786224274399396,-0.07317988907746924,-0.9973056773496756,0.0051078136921992295
1701864894.1238124,-4.107749812815337,-3.923008739864485,0.06573899803685807,0.03480183643914514,0.0012789402259562853,0.9987200162582689,-0.03668140697198658,1.4492702874153457e-06,-0.0696647435062979,-3.0681688704031607,1.685915799617463e-07,8.151369287346473e-05,-7.841028015688007e-08,0.6827850365500653,1.4328712448858646e-05,9.786224745999279,-0.07317989179775888,-0.9973056773889079,0.005107767058114422
1701864894.1353493,-4.107749851217934,-3.9230087425779447,0.06573925611234008,0.0348015075694241,0.001278928836206233,0.9987200277280153,-0.036681407100596815,1.4506704689686287e-06,-0.06966408497450115,-3.068168871036745,1.6857250785966768e-07,8.186127826324099e-05,-7.868776446866555e-08,0.6827783205350652,1.4288110164676265e-05,9.78622521958557,-0.07317989453007336,-0.9973056774283046,0.005107720219253188
1701864894.1419315,-4.107749889763929,-3.923008745301872,0.06573951528370978,0.03480117730340169,0.0012789173951311518,0.9987200392463494,-0.036681407229874036,1.4520706455301824e-06,-0.06966342364652717,-3.0681688716725617,1.6855262584299882e-07,8.220886760998613e-05,-7.896519654258419e-08,0.6827714701183522,1.4329067289502144e-05,9.786225695005255,-0.07317989727441351,-0.9973056774678651,0.005107673175606699
1701864894.1515815,-4.107749928453158,-3.9230087480362545,0.06573977555096727,0.034800845641080554,0.001278905902731441,0.9987200508132701,-0.03668140735981784,1.453470817724348e-06,-0.0696627595223814,-3.0681688723106104,1.6853281884185593e-07,8.255645629235595e-05,-7.92426352353169e-08,0.6827645923982274,1.4369811357977412e-05,9.786226172362428,-0.07317990003077822,-0.9973056775075901,0.005107625927175903
1701864894.1668603,-4.107749967285451,-3.92300875078108,0.0657400369141129,0.03480051258247382,0.0012788943590105366,0.9987200624287753,-0.036681407490428225,1.4548709914566324e-06,-0.06966209260209046,-3.068168872950892,1.6851374468160555e-07,8.290404166180693e-05,-7.952011882593908e-08,0.68275779433966,1.4329194856306339e-05,9.786226651653276,-0.07317990279916686,-0.9973056775474795,0.005107578473968618
1701864894.1718662,-4.107750006260647,-3.9230087535363367,0.06574029937314603,0.03480017812756201,0.001278882763963567,0.9987200740928642,-0.036681407621705416,1.4562711583806095e-06,-0.0696614228856151,-3.0681688735934056,1.6849363925865817e-07,8.32516319095549e-05,-7.979753730527855e-08,0.6827508262234238,1.4397139650403054e-05,9.786227132775956,-0.07317990557957997,-0.9973056775875329,0.005107530815973679
1701864894.1920128,-4.107750045378578,-3.923008756302012,0.06574056292806722,0.034799842276364436,0.0012788711175953913,0.9987200858055351,-0.03668140775364893,1.457671326829784e-06,-0.06966075037299442,-3.068168874238152,1.6847456366859564e-07,8.359921729861222e-05,-8.00750203728181e-08,0.6827439734049359,1.435653852235229e-05,9.786227615884389,-0.07317990837201592,-0.9973056776277505,0.005107482953202168
1701864894.1986852,-4.107750084639078,-3.923008759078094,0.06574082757887582,0.0347995050288617,0.0012788594199011425,0.9987200975667869,-0.03668140788625903,1.4590714884594688e-06,-0.06966007506418935,-3.0681688748851306,1.6845445688194632e-07,8.394680754041561e-05,-8.035243841548743e-08,0.6827369505691279,1.4424491724986622e-05,9.786228100816716,-0.07317991117647533,-0.997305677668132,0.005107434885642943
1701864894.2117217,-4.107750124041982,-3.9230087618645695,0.06574109332557243,0.03479916638507314,0.0012788476708856847,0.9987201093766176,-0.036681408019535705,1.4604716515766497e-06,-0.06965939695923903,-3.068168875534341,1.6843538122857816e-07,8.429439292274065e-05,-8.062992113462671e-08,0.6827300430629163,1.4383866878282246e-05,9.786228587733557,-0.07317991399295745,-0.9973056777086781,0.005107386613307127
1701864894.2147384,-4.107750163587125,-3.923008764661428,0.06574136016815649,0.03479882634498292,0.0012788358705451705,0.9987201212350265,-0.036681408153478735,1.4618718096499219e-06,-0.06965871605811161,-3.068168876185784,1.6841549495766438e-07,8.464198226274486e-05,-8.09073515829498e-08,0.6827230010925319,1.4424853137618452e-05,9.786229076483076,-0.07317991682146187,-0.9973056777493884,0.005107338136185841
1701864894.2319121,-4.1077502032743425,-3.923008767468656,0.06574162810662804,0.03479848490859364,0.0012788240188799985,0.9987201331420118,-0.03668140828808834,1.4632719632627616e-06,-0.0696580323608124,-3.068168876839459,1.683956839517934e-07,8.498957093719316e-05,-8.118478870290293e-08,0.6827159318780103,1.4465568021271723e-05,9.786229567170071,-0.07317991966198868,-0.9973056777902628,0.005107289454280078
1701864894.2418263,-4.107750243103466,-3.9230087702862417,0.06574189714098748,0.03479814207591846,0.0012788121158936092,0.9987201450975718,-0.03668140842336384,1.4646721183711036e-06,-0.06965734586736812,-3.0681688774953666,1.6837660659588956e-07,8.533715630134048e-05,-8.146227073563395e-08,0.6827089422784021,1.4424967659031574e-05,9.786230059789876,-0.07317992251453591,-0.9973056778313013,0.00510724056759761
1701864894.2568707,-4.107750283074333,-3.923008773114174,0.06574216727123412,0.03479779784693785,0.0012788001615811227,0.9987201571017057,-0.03668140855930592,1.4660722665876598e-06,-0.06965665657773938,-3.0681688781535064,1.6835649641970837e-07,8.568474654445766e-05,-8.173968756761154e-08,0.6827017826283308,1.4492912082530444e-05,9.786230554241927,-0.07317992537910505,-0.997305677872504,0.005107191476127297
1701864894.262929,-4.107750323186775,-3.9230087759524386,0.06574243849736858,0.03479745222167118,0.0012787881559474066,0.9987201691544114,-0.03668140869591413,1.4674724162524537e-06,-0.06965596449196544,-3.0681688788138786,1.6833741774048556e-07,8.603233192629333e-05,-8.201716913918208e-08,0.6826947383085848,1.4452304361769088e-05,9.786231050677504,-0.07317992825569448,-0.997305677913871,0.005107142179880235
1701864894.2820172,-4.10775036344063,-3.923008778801025,0.06574271081939029,0.034797105200102596,0.0012787760989886143,0.998720181255688,-0.03668140883318846,1.4688725608240835e-06,-0.06965526961001436,-3.0681688794764828,1.6831752873240887e-07,8.637992126236489e-05,-8.229459848485445e-08,0.6826875595585724,1.4493267791791356e-05,9.786231548946366,-0.07317993114430418,-0.9973056779554024,0.005107092678847565
1701864894.2919629,-4.10775040383573,-3.9230087816599206,0.0657429842372993,0.03479675678223473,0.0012787639907051423,0.9987201934055339,-0.036681408971128954,1.4702727008890689e-06,-0.06965457193189159,-3.068168880141319,1.6829771457342408e-07,8.672750993622957e-05,-8.257203446103713e-08,0.682680353505902,1.4534004744741311e-05,9.786232049153163,-0.07317993404493388,-0.9973056779970979,0.005107042973030259
1701864894.3015716,-4.107750444371909,-3.923008784529113,0.06574325875109599,0.03479640696808071,0.0012787518311004327,0.998720205603947,-0.03668140910973553,1.4716728423694347e-06,-0.06965387145762368,-3.0681688808083876,1.682786342526334e-07,8.707509529641926e-05,-8.284951534469855e-08,0.6826732271118292,1.4493393192120613e-05,9.786232551291286,-0.07317993695758285,-0.9973056780389574,0.005106993062436138
1701864894.3119178,-4.107750485049005,-3.9230087874085906,0.0657435343607797,0.034796055757621014,0.0012787396201696067,0.998720217850927,-0.036681409249008035,1.473072976936584e-06,-0.06965316818717138,-3.0681688814776886,1.6825852156775473e-07,8.742268553869789e-05,-8.312693107312135e-08,0.6826659306569611,1.4561339496722205e-05,9.78623305526161,-0.07317993988225083,-0.9973056780809813,0.005106942947053999
1701864894.3241634,-4.107750525866849,-3.92300879029834,0.06574381106635102,0.03479570315087502,0.0012787273579175265,0.9987202301464714,-0.03668140938894645,1.4744731128892386e-06,-0.06965246212057387,-3.0681688821492217,1.682394389656815e-07,8.777027091702955e-05,-8.340441144673299e-08,0.6826587495079365,1.4520732442421492e-05,9.786233561215887,-0.07317994281893707,-0.9973056781231693,0.005106892626894964
1701864894.3316731,-4.107750566825278,-3.9230087931983504,0.06574408886780927,0.0347953491478233,0.0012787150443393232,0.9987202424905794,-0.03668140952955077,1.4758732419009766e-06,-0.06965175325779208,-3.068168882822987,1.6821932511614258e-07,8.811786115167115e-05,-8.368182672726683e-08,0.682651398312127,1.4588692835092842e-05,9.78623406899468,-0.07317994576764165,-0.9973056781655215,0.005106842101947864
1701864894.3419702,-4.107750607924124,-3.9230087961086086,0.06574436776515506,0.03479499374848517,0.0012787026794398625,0.998720254883249,-0.036681409670821,1.4772733722818223e-06,-0.06965104159886508,-3.0681688834989846,1.6820024230996622e-07,8.84654465239558e-05,-8.395930671323479e-08,0.6826441624813392,1.4548055376464597e-05,9.78623457875583,-0.07317994872836389,-0.9973056782080382,0.005106791372223825
1701864894.3515317,-4.107750649163224,-3.923008799029103,0.06574464775838781,0.03479463695284481,0.0012786902632152988,0.9987202673244792,-0.03668140981275713,1.478673497489073e-06,-0.06965032714376103,-3.068168884177214,1.6818034988969634e-07,8.881303585577784e-05,-8.423673452321535e-08,0.6826367921454093,1.458905499837998e-05,9.786235090349853,-0.07317995170110372,-0.9973056782507188,0.0051067404377139886
1701864894.3668544,-4.107750690542412,-3.9230088019598215,0.06574492884750757,0.03479427876090481,0.0012786777956660291,0.9987202798142683,-0.03668140995535895,1.48007361813055e-06,-0.06964960989248527,-3.068168884857676,1.681605322831339e-07,8.916062452007778e-05,-8.451416896858682e-08,0.6826293945969337,1.4629763830056675e-05,9.786235603879843,-0.07317995468586037,-0.9973056782935635,0.005106689298419315
1701864894.373908,-4.107750732061521,-3.923008804900751,0.06574521103251477,0.034793919172678336,0.001278665276795492,0.9987202923526144,-0.036681410098626244,1.4814737401278424e-06,-0.0696488898450645,-3.06816888554037,1.6814144748547585e-07,8.950820987493713e-05,-8.479164827305997e-08,0.682622076646949,1.458916525704478e-05,9.786236119342163,-0.07317995768263282,-0.9973056783365728,0.005106637954347599
1701864894.38191,-4.107750773720388,-3.923008807851881,0.06574549431340868,0.034793558188145855,0.0012786527065988117,0.9987203049395167,-0.03668141024255943,1.482873855118447e-06,-0.06964816700145937,-3.068168886225296,1.6812133121399997e-07,8.985580011124137e-05,-8.506906247789156e-08,0.6826145886396278,1.4657108748380935e-05,9.786236636636113,-0.07317996069142198,-0.9973056783797459,0.005106586405487692
1701864894.3918614,-4.1077508155188465,-3.9230088108131977,0.06574577869018992,0.03479319580732674,0.001278640085080853,0.9987203175749729,-0.03668141038715807,1.4842739714367315e-06,-0.06964744136170911,-3.068168886912454,1.6810224525575413e-07,9.020338548228822e-05,-8.534654132188305e-08,0.6826072159712352,1.4616495358681935e-05,9.786237155913204,-0.0731799637122262,-0.9973056784230835,0.005106534651850677
1701864894.4057236,-4.10775085745673,-3.92300881378469,0.0657460641628579,0.03479283203020512,0.0012786274122377692,0.9987203302589822,-0.03668141053242218,1.4856740825386914e-06,-0.06964671292578177,-3.068168887601845,1.680823497605877e-07,9.055097481039695e-05,-8.562396800781907e-08,0.6825997088583522,1.4657472390657164e-05,9.786237677021958,-0.07317996674504558,-0.9973056784665851,0.005106482693427707
1701864894.4117317,-4.107750899533875,-3.9230088167663455,0.06574635073141273,0.03479246685678361,0.0012786146880699586,0.9987203429915429,-0.036681410678351775,1.4870741890186711e-06,-0.06964598169368277,-3.0681688882934672,1.6806252931194135e-07,9.089856347487486e-05,-8.590140133446849e-08,0.6825921744600639,1.469819398300118e-05,9.78623820006837,-0.0731799697898797,-0.9973056785102511,0.005106430530219751
1701864894.4245133,-4.1077509417501155,-3.923008819758152,0.06574663839585475,0.034792100287075384,0.001278601912580862,0.9987203557726531,-0.03668141082494682,1.4884742967891293e-06,-0.06964524766543878,-3.068168888987322,1.6804344221154514e-07,9.12461488260726e-05,-8.617887957107696e-08,0.6825847197049908,1.4657592786798149e-05,9.786238725045267,-0.07317997284672793,-0.9973056785540813,0.0051063781622346285
1701864894.4377031,-4.107750984105286,-3.9230088227600968,0.0657469271561833,0.034791732321060885,0.0012785890857655972,0.9987203686023118,-0.036681410972207326,1.4898743975027807e-06,-0.06964451084101045,-3.0681688896834083,1.6802332227344833e-07,9.159373905809858e-05,-8.64562925871051e-08,0.6825770948848541,1.4725531251795232e-05,9.786239251854074,-0.0731799759155904,-0.9973056785980756,0.005106325589461147
1701864894.446784,-4.107751026599221,-3.923008825772168,0.06574721701239895,0.034791362958759495,0.0012785762076290383,0.9987203814805169,-0.03668141112013308,1.4912744994983393e-06,-0.069643771220437,-3.0681688903817275,1.6800423470672477e-07,9.194132442778919e-05,-8.673377041804853e-08,0.682569585386018,1.4684930710220266e-05,9.78623978064529,-0.07317997899646585,-0.9973056786422341,0.0051062728119104245
1701864894.4618475,-4.107751069231755,-3.9230088287943534,0.06574750796450116,0.03479099220015535,0.0012785632781673328,0.9987203944072672,-0.03668141126872406,1.4926745962213681e-06,-0.06964302880368652,-3.068168891082278,1.6798433605920247e-07,9.228891375239331e-05,-8.70111959978038e-08,0.6825619414756399,1.4725885782938745e-05,9.786240311268495,-0.0731799820893543,-0.9973056786865571,0.005106219829573593
1701864894.4692707,-4.107751112002725,-3.9230088318266416,0.06574780001248998,0.03479062004525109,0.0012785502973808754,0.9987204073825612,-0.036681411417980314,1.4940746882544748e-06,-0.06964228359076441,-3.068168891785061,1.6796451155806886e-07,9.26365024134916e-05,-8.728862814245291e-08,0.6825542702334161,1.4766629217607382e-05,9.78624084382883,-0.07317998519425542,-0.997305678731044,0.005106166642451623
1701864894.4815218,-4.107751154911961,-3.9230088348690195,0.06574809315636582,0.03479024649405981,0.001278537265273114,0.9987204204063969,-0.036681411567901556,1.495474781546634e-06,-0.06964153558169729,-3.068168892490076,1.6794542232012828e-07,9.298408776258068e-05,-8.756610529307991e-08,0.6825466786745485,1.4726013808430268e-05,9.786241378319156,-0.07317998831116804,-0.9973056787756952,0.005106113250552323
1701864894.4915512,-4.107751197959303,-3.9230088379214756,0.06574838739612793,0.03478987154656203,0.0012785241818391692,0.9987204334787734,-0.03668141171848805,1.4968748677353476e-06,-0.06964078477644589,-3.0681688931973228,1.6792530072592692e-07,9.333167799077156e-05,-8.784351731265188e-08,0.6825389170375464,1.4793960297011276e-05,9.786241914640735,-0.07317999144009275,-0.9973056788205105,0.0051060596538645255
1701864894.5017273,-4.107751241144581,-3.9230088409839974,0.06574868273177698,0.034789495202777104,0.0012785110470839008,0.9987204465996884,-0.03668141186973957,1.4982749551310699e-06,-0.06964003117504941,-3.0681688939068015,1.6790620870026512e-07,9.367926335601169e-05,-8.812099395128371e-08,0.6825312707095833,1.475335528855217e-05,9.786242452944919,-0.07317999458102838,-0.99730567886549,0.005106005852399329
1701864894.5017273,-4.107751284467634,-3.9230088440565725,0.06574897916331222,0.03478911746268557,0.0012784978610024444,0.998720459769141,-0.03668141202165589,1.4996750354330365e-06,-0.06963927477746866,-3.0681688946185126,1.6788608633527723e-07,9.402685357715328e-05,-8.839840556453354e-08,0.6825234543490145,1.4821307998837368e-05,9.78624299307247,-0.07317999773397452,-0.997305678910634,0.0051059518461455565
1701864894.5217884,-4.107751327928293,-3.923008847139189,0.06574927669073433,0.0347887383263068,0.001278484623599661,0.9987204729871291,-0.036681412174237205,1.5010751169238773e-06,-0.06963851558374289,-3.0681688953324557,1.6786699409732955e-07,9.43744389357406e-05,-8.86758818130852e-08,0.6825157533119824,1.4780679381975006e-05,9.78624353518221,-0.07318000089893081,-0.9973056789559419,0.005105897635114336
1701864894.5243044,-4.107751371353696,-3.9230088502770286,0.06574957531391085,0.0347883577909172,0.0012784713585374178,0.998720486230225,-0.036681412967053344,1.5024781105766677e-06,-0.06963775359016432,-3.0681688947679584,1.7928711237383793e-07,9.472248543370302e-05,6.985961777314394e-08,0.682505178265129,1.674398539446202e-05,9.786244265455156,-0.07318000535004192,-0.9973056789074518,0.0051058433108082946
1701864894.541845,-4.107751414535617,-3.923008853484935,0.06574987503291278,0.03478797585721701,0.001278458073054544,0.9987204994906994,-0.03668141460959596,1.5038838298192323e-06,-0.06963698879866548,-3.0681688925054917,1.9431253255795698e-07,9.507029177617186e-05,2.8041992631094025e-07,0.6824940773915603,1.758868679542516e-05,9.786245039335176,-0.07318001150468247,-0.9973056787343887,0.005105788902292285
1701864894.54881,-4.107751182883055,-3.9230088567376664,0.06575017542037451,0.034787586562058215,0.0012784448793937504,0.9987205129953856,-0.03668141657721945,1.5059927269221977e-06,-0.06963620929200216,-3.068168889635326,2.8697974916711413e-07,9.689951590370423e-05,3.557762235101631e-07,0.6782362213824384,0.0003295504452133875,9.786525845951495,-0.07318001833898263,-0.9973056785131578,0.005105734160366777
1701864894.5645134,-4.107746192526438,-3.9230088601887565,0.06575046994745719,0.0347870987148969,0.0012784337777979925,0.9987205299322136,-0.03668141848394645,1.5195511975847794e-06,-0.06963523284836838,-3.0681688875377002,1.7035798989076634e-06,0.00012138050854151942,2.599377206627652e-07,0.6088307531213797,0.005446013168094658,9.791117913450089,-0.07318002540984715,-0.9973056782901629,0.005105676371698284
1701864894.5715234,-4.107732248038229,-3.923008863823043,0.06575075951844876,0.034786523697012114,0.001278424465360001,0.998720549904629,-0.03668142033999172,1.5431140128279833e-06,-0.06963408220654001,-3.0681688861127157,2.9413895866485698e-06,0.00014303487191365477,1.7648970206968788e-07,0.5439530681457494,0.010227865689217734,9.795652038164633,-0.07318003270056059,-0.9973056780654546,0.005105615765906111
1701864894.5868068,-4.107705435171061,-3.9230088676187966,0.0657510448883199,0.034785872242724065,0.0012784167131658706,0.9987205725385879,-0.03668142215366764,1.5754318680542863e-06,-0.06963277881689793,-3.068168885272755,4.0246577326508035e-06,0.0001620227648114381,1.039088290825103e-07,0.48343835224853393,0.014689430617567596,9.799905364211538,-0.07318004018876688,-0.9973056778389838,0.005105552672869657
1701864894.596341,-4.107662101279261,-3.9230088715577076,0.06575132668814124,0.034785153363983676,0.0012784103295444419,0.9987205975200456,-0.036681423931966835,1.615456939769891e-06,-0.06963134068805307,-3.068168884944261,4.978308585289237e-06,0.00017877202943161893,4.0450536175081347e-08,0.42696328962392605,0.018853069814088488,9.803871511659276,-0.07318004785568943,-0.9973056776107053,0.005105487370562382
1701864894.601848,-4.107598836728248,-3.9230088756244004,0.06575160544983022,0.03478437464604158,0.0012784051528957538,0.9987206245846593,-0.03668142568081388,1.6623067384640157e-06,-0.06962978297761735,-3.0681688850652202,5.8227947612333655e-06,0.0001936370699434088,-1.531720397663632e-08,0.37424112291509215,0.022739848319168247,9.807571112136696,-0.0731800556856209,-0.9973056773805762,0.00510542009240931
1701864894.6166975,-4.107512457625133,-3.9230088798059004,0.06575188162408727,0.03478354250603318,0.0012784010462566584,0.9987206535087821,-0.03668142740525667,1.7152341744516731e-06,-0.06962811850893974,-3.0681688855830775,6.574865835791944e-06,0.00020690805571163982,-6.456767245926034e-08,0.3250053171079329,0.02636960169740783,9.811023560844795,-0.07318006366536134,-0.9973056771485557,0.0051053510353929535
1701864894.627281,-4.107394316947404,-3.9230088838557586,0.06575216468651508,0.03478278635965884,0.001278395127449277,0.9987206797852983,-0.036681429199912644,1.7589327972538836e-06,-0.06962660588414789,-3.068168885444677,5.43331902491031e-06,0.00018803252901637715,1.683604025362937e-08,0.19140786497644668,0.036219196585404796,9.820693866260438,-0.0731800715228635,-0.9973056769154999,0.005105283931895736
1701864894.6318448,-4.107239969638743,-3.9230088008774424,0.06575244673133003,0.034782000179036404,0.0012784095896424855,0.9987206841849002,-0.036682054382371536,1.802122142763228e-06,-0.06962503469314064,-3.0681676369906388,1.6165580923915375e-05,0.0001953130989066182,0.00015481742072668078,0.12239891436619865,0.04094071411356131,9.825245775110448,-0.07318132161498798,-0.9973055851104197,0.005105298644262701
1701864894.6431098,-4.107045359498322,-3.923007194942579,0.06575277020464552,0.03478083099343835,0.0012787644361061095,0.9987203030885895,-0.0366935247088464,1.7978030163220435e-06,-0.06962272257072737,-3.0681446697528303,0.00019808073797184,0.0002874222222837963,0.0028481115302359246,0.055815568573341245,0.03967694360254308,9.829968187234812,-0.07320418325775022,-0.9973039000119166,0.005106718573317488
1701864894.6590748,-4.106811101145609,-3.923004546517291,0.06575469481621245,0.03476606116278974,0.0012788282751933712,0.9987200863202407,-0.03671341403300579,1.6253095182328281e-06,-0.06959318967539592,-3.068104871888881,0.0003226456421261466,0.003671206372415108,0.0049352368046382085,0.05500877862017994,0.04249100954615045,9.83297666420626,-0.0732439284202444,-0.9973009796565675,0.00510714456631238
1701864894.661579,-4.106538076731723,-3.923001012331619,0.0657597714839559,0.034724717778125386,0.0012779333216761627,0.9987206723585383,-0.036736622944468576,1.2621727650320286e-06,-0.06951044298224417,-3.068058487757028,0.00035556826891750367,0.010286148047245734,0.005751998932100257,0.05558963203914091,0.035759872183968006,9.832939929202448,-0.0732904977866946,-0.9972975748421226,0.005103934580243751
