timestep,x,y,z,qx,qy,qz,qw,roll,yaw,pitch,roll_a,pitch_a,yaw_a,acc_x,acc_y,acc_z,c_x,c_y,c_z,x_next,x_artis,y_next,y_artis,z_next,z_artis
1701864339,-4.109450236,-3.923134472,0.067233262,0.022167162,0.000814858,0.999080218,-0.036697022,1.28E-06,-0.044367908,-3.068164081,6.76E-05,-0.548057777,4.60E-06,-2.203246798,0.000907148,9.366190459,-0.07329041,-0.997305329,0.003255155,-4.108913259,0.000536978,-3.923094975,3.95E-05,0.06676437,-0.000468892
1701864339,-4.108913259,-3.923094975,0.06676437,0.026147546,0.00096104,0.998983969,-0.036693485,1.24E-06,-0.052336376,-3.068164088,-5.18E-06,-0.990555822,3.71E-07,-1.217757819,0.00177774,9.969352432,-0.073262148,-0.997305329,0.003839016,-4.108140569,0.000772689,-3.923038138,5.68E-05,0.066082536,-0.000681834
1701864339,-4.108140569,-3.923038138,0.066082536,0.031901416,0.001172365,0.998816782,-0.036687341,1.20E-06,-0.06385675,-3.068164099,-4.77E-06,-1.432099266,3.81E-07,-1.125777084,0.001202161,9.888563998,-0.073213064,-0.997305329,0.004682712,-4.107138541,0.001002028,-3.922964432,7.37E-05,0.065180301,-0.000902235
1701864339,-4.107138541,-3.922964432,0.065180301,0.039421328,0.00144856,0.998548258,-0.036677475,1.17E-06,-0.078916343,-3.068164113,-4.28E-06,-1.872074973,4.02E-07,-0.934943995,0.001096333,9.831950706,-0.073134249,-0.997305329,0.005784664,-4.107609202,-0.000470661,-3.922998436,-3.40E-05,0.065595421,0.00041512
1701864339,-4.107609202,-3.922998436,0.065595421,0.035884933,0.001318727,0.99868168,-0.036680166,1.45E-06,-0.071833755,-3.068168538,-6.36E-06,0.880431495,-0.000549601,15.09419561,-0.01182188,11.25520173,-0.073168975,-0.997305653,0.005266508,-4.107830552,-0.00022135,-3.923014721,-1.63E-05,0.065796599,0.000201178
1701864339,-4.107830552,-3.923014721,0.065796599,0.03419264,0.001256543,0.998741052,-0.036682349,1.39E-06,-0.068444801,-3.068168529,-7.00E-06,0.421277145,5.14E-07,-3.553643573,0.013622446,6.916829584,-0.073186407,-0.997305653,0.005018455,-4.107815097,1.55E-05,-3.923013589,1.13E-06,0.065781625,-1.50E-05
1701864339,-4.107815097,-3.923013589,0.065781625,0.034310398,0.001260834,0.998737014,-0.036682202,1.32E-06,-0.068680611,-3.068168523,-8.56E-06,-0.029313304,7.22E-07,-0.896801726,0.000901218,10.06740204,-0.073185227,-0.997305653,0.005035645,-4.10756261,0.000252487,-3.922995021,1.86E-05,0.065551586,-0.000230038
1701864339,-4.10756261,-3.922995021,0.065551586,0.036226992,0.001331201,0.99866933,-0.036679717,1.27E-06,-0.072518773,-3.068168523,-6.70E-06,-0.477117722,5.93E-07,-0.897364539,0.000800122,10.00069543,-0.073165365,-0.997305653,0.00531645,-4.107678652,-0.000116042,-3.923003518,-8.50E-06,0.065653698,0.000102111
1701864339,-4.107678652,-3.923003518,0.065653698,0.035346405,0.001298863,0.99870089,-0.036680739,1.29E-06,-0.070755281,-3.068168796,6.09E-08,0.219217563,-3.41E-05,4.707738224,-5.35E-05,10.54305142,-0.073174353,-0.997305673,0.005187416,-4.10769358,-1.49E-05,-3.923004619,-1.10E-06,0.065666622,1.29E-05
1701864339,-4.10769358,-3.923004619,0.065666622,0.035232833,0.001294672,0.998704903,-0.036680887,1.25E-06,-0.07052784,-3.068168793,-4.84E-06,0.028272896,3.30E-07,-0.571340978,0.001429185,9.026359636,-0.073175534,-0.997305673,0.005170734,-4.10770396,-1.04E-05,-3.923005384,-7.65E-07,0.065675159,8.54E-06
1701864339,-4.10770396,-3.923005384,0.065675159,0.035153821,0.001291758,0.998707688,-0.03668099,1.23E-06,-0.070369611,-3.068168791,-2.96E-06,0.019669328,2.00E-07,0.998328294,0.000616144,9.97768148,-0.073176353,-0.997305673,0.005159132,-4.107712228,-8.27E-06,-3.923005993,-6.09E-07,0.065681928,6.77E-06
1701864339,-4.107712228,-3.923005993,0.065681928,0.035090886,0.001289438,0.998709901,-0.036681072,1.21E-06,-0.070243577,-3.06816879,-2.28E-06,0.015667092,1.49E-07,0.857702624,0.000560576,9.798487923,-0.073177004,-0.997305673,0.005149891,-4.107718835,-6.61E-06,-3.92300648,-4.87E-07,0.065687336,5.41E-06
1701864339,-4.107718835,-3.92300648,0.065687336,0.035040584,0.001287583,0.998711667,-0.036681137,1.19E-06,-0.070142844,-3.068168789,-1.78E-06,0.012521976,1.16E-07,0.840704839,0.000516729,9.793808322,-0.073177523,-0.997305673,0.005142505,-4.107724117,-5.28E-06,-3.92300687,-3.89E-07,0.065691658,4.32E-06
1701864339,-4.107724117,-3.92300687,0.065691658,0.035000377,0.001286101,0.998713077,-0.036681189,1.18E-06,-0.070062325,-3.068168788,-1.39E-06,0.010009234,8.90E-08,0.827474049,0.000476181,9.792540795,-0.073177938,-0.997305673,0.005136602,-4.107728338,-4.22E-06,-3.923007181,-3.11E-07,0.065695114,3.46E-06
1701864339,-4.107728338,-3.923007181,0.065695114,0.034968237,0.001284916,0.998714203,-0.03668123,1.17E-06,-0.069997962,-3.068168788,-1.07E-06,0.008000922,6.77E-08,0.815463849,0.00043899,9.791549231,-0.073178269,-0.997305673,0.005131883,-4.107731713,-3.37E-06,-3.923007429,-2.49E-07,0.065697877,2.76E-06
1701864339,-4.107731713,-3.923007429,0.065697877,0.034942544,0.001283969,0.998715102,-0.036681263,1.17E-06,-0.069946511,-3.068168787,-8.24E-07,0.006395797,5.06E-08,0.804513283,0.000404688,9.790737745,-0.073178533,-0.997305673,0.005128111,-4.107734411,-2.70E-06,-3.923007628,-1.99E-07,0.065700088,2.21E-06
1701864339,-4.107734411,-3.923007628,0.065700088,0.034922006,0.001283212,0.99871582,-0.03668129,1.16E-06,-0.06990538,-3.068168787,-6.24E-07,0.005112943,3.69E-08,0.79451775,0.000373219,9.790070417,-0.073178744,-0.997305673,0.005125097,-4.107736567,-2.16E-06,-3.923007787,-1.59E-07,0.065701858,1.77E-06
1701864339,-4.107736567,-3.923007787,0.065701858,0.034905585,0.001282607,0.998716394,-0.036681311,1.16E-06,-0.069872496,-3.068168787,-4.63E-07,0.004087676,2.59E-08,0.785385617,0.000344278,9.789519307,-0.073178913,-0.997305673,0.005122686,-4.107738292,-1.72E-06,-3.923007914,-1.27E-07,0.065703276,1.42E-06
1701864339,-4.107738292,-3.923007914,0.065703276,0.034892456,0.001282123,0.998716853,-0.036681328,1.16E-06,-0.069846205,-3.068168786,-3.36E-07,0.003268293,1.71E-08,0.777035481,0.000317582,9.789062101,-0.073179048,-0.997305673,0.00512076,-4.10773967,-1.38E-06,-3.923008016,-1.02E-07,0.065704413,1.14E-06
1701864339,-4.10773967,-3.923008016,0.065704413,0.034881958,0.001281737,0.99871722,-0.036681341,1.15E-06,-0.069825181,-3.068168786,-2.34E-07,0.002613466,9.95E-09,0.769394476,0.00029313,9.788680959,-0.073179155,-0.997305673,0.005119219,-4.107740773,-1.10E-06,-3.923008097,-8.12E-08,0.065705325,9.12E-07
1701864339,-4.107740773,-3.923008097,0.065705325,0.034873561,0.001281428,0.998717513,-0.036681352,1.15E-06,-0.069808366,-3.068168786,-1.52E-07,0.002090164,4.21E-09,0.762398005,0.000270535,9.788361596,-0.073179241,-0.997305673,0.005117988,-4.107741655,-8.82E-07,-3.923008162,-6.49E-08,0.065706058,7.33E-07
1701864339,-4.107741655,-3.923008162,0.065706058,0.034866845,0.001281181,0.998717748,-0.036681361,1.15E-06,-0.069794916,-3.068168786,-8.67E-08,0.001671983,-4.41E-10,0.755987708,0.000249828,9.788092575,-0.07317931,-0.997305673,0.005117003,-4.107742361,-7.06E-07,-3.923008214,-5.19E-08,0.065706648,5.90E-07
1701864339,-4.107742361,-3.923008214,0.065706648,0.034861471,0.001280983,0.998717935,-0.036681367,1.15E-06,-0.069784154,-3.068168786,-3.47E-08,0.001337821,-4.21E-09,0.750111504,0.000230782,9.787864711,-0.073179365,-0.997305673,0.005116215,-4.107742926,-5.65E-07,-3.923008255,-4.15E-08,0.065707125,4.77E-07
1701864339,-4.107742926,-3.923008255,0.065707125,0.034857169,0.001280825,0.998718085,-0.036681373,1.15E-06,-0.06977554,-3.068168786,6.93E-09,0.001070812,-7.28E-09,0.744722523,0.000213184,9.787670627,-0.073179409,-0.997305673,0.005115585,-4.107743378,-4.52E-07,-3.923008288,-3.32E-08,0.065707511,3.86E-07
1701864339,-4.107743378,-3.923008288,0.065707511,0.034853725,0.001280699,0.998718206,-0.036681377,1.15E-06,-0.069768642,-3.068168786,4.02E-08,0.000857476,-9.79E-09,0.739778134,0.000197099,9.787504382,-0.073179444,-0.997305673,0.00511508,-4.107743741,-3.62E-07,-3.923008315,-2.66E-08,0.065707825,3.14E-07
1701864339,-4.107743741,-3.923008315,0.065707825,0.034850965,0.001280598,0.998718302,-0.036681381,1.15E-06,-0.069763115,-3.068168786,6.67E-08,0.000687036,-1.18E-08,0.735240301,0.000182199,9.787361179,-0.073179473,-0.997305673,0.005114676,-4.107744031,-2.91E-07,-3.923008336,-2.13E-08,0.065708081,2.56E-07
1701864339,-4.107744031,-3.923008336,0.065708081,0.034848752,0.001280517,0.998718379,-0.036681384,1.15E-06,-0.069758684,-3.068168787,8.79E-08,0.000550883,-1.36E-08,0.73107403,0.000168597,9.787237141,-0.073179495,-0.997305673,0.005114353,-4.107744264,-2.33E-07,-3.923008353,-1.71E-08,0.065708291,2.11E-07
1701864339,-4.107744264,-3.923008353,0.065708291,0.034846976,0.001280452,0.998718441,-0.036681386,1.15E-06,-0.069755127,-3.068168787,1.05E-07,0.000442133,-1.50E-08,0.727248109,0.000155981,9.787129121,-0.073179513,-0.997305673,0.005114093,-4.107744452,-1.87E-07,-3.923008367,-1.37E-08,0.065708466,1.74E-07
1701864339,-4.107744452,-3.923008367,0.065708466,0.034845548,0.0012804,0.998718491,-0.036681388,1.16E-06,-0.069752269,-3.068168787,1.18E-07,0.000355284,-1.62E-08,0.723733659,0.000144452,9.787034561,-0.073179528,-0.997305673,0.005113885,-4.107744603,-1.51E-07,-3.923008378,-1.10E-08,0.065708611,1.45E-07
1701864340,-4.107744603,-3.923008378,0.065708611,0.0348444,0.001280359,0.998718531,-0.036681389,1.16E-06,-0.069749969,-3.068168787,1.29E-07,0.000285941,-1.72E-08,0.720504733,0.000133849,9.786951372,-0.073179539,-0.997305673,0.005113718,-4.107744724,-1.22E-07,-3.923008387,-8.87E-09,0.065708734,1.23E-07
1701864340,-4.107744724,-3.923008387,0.065708734,0.034843473,0.001280325,0.998718563,-0.03668139,1.16E-06,-0.069748114,-3.068168787,1.38E-07,0.000230588,-1.80E-08,0.71753769,0.000124016,9.786877842,-0.073179549,-0.997305673,0.005113583,-4.107744822,-9.83E-08,-3.923008394,-7.15E-09,0.065708838,1.05E-07
1701864340,-4.107744822,-3.923008394,0.065708838,0.034842725,0.001280298,0.998718589,-0.036681391,1.16E-06,-0.069746614,-3.068168787,1.45E-07,0.000186418,-1.88E-08,0.714810616,0.000115075,9.786812566,-0.073179556,-0.997305673,0.005113474,-4.107744902,-7.97E-08,-3.9230084,-5.78E-09,0.065708929,9.06E-08
1701864340,-4.107744902,-3.9230084,0.065708929,0.034842117,0.001280276,0.998718611,-0.036681392,1.16E-06,-0.069745398,-3.068168787,1.50E-07,0.000151186,-1.94E-08,0.712304009,0.000106747,9.786754381,-0.073179562,-0.997305673,0.005113387,-4.107744967,-6.49E-08,-3.923008405,-4.69E-09,0.065709009,7.95E-08
1701864340,-4.107744967,-3.923008405,0.065709009,0.034841623,0.001280259,0.998718628,-0.036681392,1.16E-06,-0.069744408,-3.068168788,1.55E-07,0.000123096,-2.00E-08,0.709999529,9.92E-05,9.786702324,-0.073179567,-0.997305673,0.005113315,-4.10774502,-5.30E-08,-3.923008408,-3.81E-09,0.065709079,7.09E-08
1701864340,-4.10774502,-3.923008408,0.065709079,0.034841218,0.001280245,0.998718642,-0.036681393,1.16E-06,-0.069743597,-3.068168788,1.58E-07,0.000100716,-2.05E-08,0.707880735,9.22E-05,9.786655592,-0.073179571,-0.997305673,0.005113257,-4.107745064,-4.36E-08,-3.923008412,-3.12E-09,0.065709144,6.42E-08
1701864340,-4.107745064,-3.923008412,0.065709144,0.034840885,0.001280233,0.998718654,-0.036681393,1.16E-06,-0.06974293,-3.068168788,1.61E-07,8.29E-05,-2.10E-08,0.705932583,8.57E-05,9.78661351,-0.073179574,-0.997305673,0.00511321,-4.1077451,-3.62E-08,-3.923008414,-2.57E-09,0.065709203,5.91E-08
1701864340,-4.1077451,-3.923008414,0.065709203,0.034840609,0.001280224,0.998718663,-0.036681394,1.17E-06,-0.069742378,-3.068168788,1.63E-07,6.87E-05,-2.14E-08,0.704140944,7.98E-05,9.786575513,-0.073179577,-0.997305673,0.005113171,-4.10774513,-3.02E-08,-3.923008416,-2.13E-09,0.065709258,5.53E-08
1701864340,-4.10774513,-3.923008416,0.065709258,0.034840378,0.001280216,0.998718671,-0.036681394,1.17E-06,-0.069741915,-3.068168788,1.65E-07,5.75E-05,-2.18E-08,0.702493381,7.43E-05,9.786541118,-0.073179579,-0.997305673,0.005113138,-4.107745155,-2.55E-08,-3.923008418,-1.78E-09,0.065709311,5.24E-08
1701864340,-4.107745155,-3.923008418,0.065709311,0.034840183,0.001280209,0.998718678,-0.036681394,1.17E-06,-0.069741525,-3.068168788,1.66E-07,4.85E-05,-2.22E-08,0.700977979,6.93E-05,9.786509918,-0.073179581,-0.997305673,0.005113111,-4.107745177,-2.18E-08,-3.92300842,-1.51E-09,0.065709361,5.03E-08
1701864340,-4.107745177,-3.92300842,0.065709361,0.034840016,0.001280204,0.998718684,-0.036681394,1.17E-06,-0.069741191,-3.068168789,1.67E-07,4.15E-05,-2.25E-08,0.699584141,6.48E-05,9.786481562,-0.073179583,-0.997305673,0.005113088,-4.107745196,-1.88E-08,-3.923008421,-1.29E-09,0.06570941,4.89E-08
1701864340,-4.107745196,-3.923008421,0.06570941,0.034839872,0.001280199,0.998718689,-0.036681394,1.17E-06,-0.069740902,-3.068168789,1.68E-07,3.59E-05,-2.29E-08,0.698302154,6.05E-05,9.786455746,-0.073179584,-0.997305673,0.005113068,-4.107745213,-1.65E-08,-3.923008422,-1.12E-09,0.065709458,4.80E-08
1701864340,-4.107745213,-3.923008422,0.065709458,0.034839745,0.001280195,0.998718693,-0.036681394,1.17E-06,-0.069740649,-3.068168789,1.69E-07,3.15E-05,-2.32E-08,0.697122749,5.66E-05,9.786432209,-0.073179585,-0.997305673,0.005113051,-4.107745227,-1.47E-08,-3.923008423,-9.86E-10,0.065709505,4.75E-08
1701864340,-4.107745227,-3.923008423,0.065709505,0.034839633,0.001280192,0.998718697,-0.036681394,1.17E-06,-0.069740423,-3.068168789,1.70E-07,2.81E-05,-2.35E-08,0.696037931,5.30E-05,9.786410723,-0.073179586,-0.997305673,0.005113036,-4.107745241,-1.33E-08,-3.923008424,-8.81E-10,0.065709553,4.73E-08
1701864340,-4.107745241,-3.923008424,0.065709553,0.03483953,0.001280189,0.998718701,-0.036681394,1.17E-06,-0.069740218,-3.068168789,1.70E-07,2.54E-05,-2.38E-08,0.695039811,4.97E-05,9.786391088,-0.073179587,-0.997305673,0.005113022,-4.107745253,-1.22E-08,-3.923008425,-8.00E-10,0.0657096,4.74E-08
1701864340,-4.107745253,-3.923008425,0.0657096,0.034839437,0.001280186,0.998718704,-0.036681394,1.18E-06,-0.069740031,-3.06816879,1.70E-07,2.33E-05,-2.41E-08,0.694121685,4.66E-05,9.786373128,-0.073179588,-0.997305673,0.00511301,-4.107745264,-1.13E-08,-3.923008425,-7.37E-10,0.065709648,4.76E-08
1701864340,-4.107745264,-3.923008425,0.065709648,0.034839349,0.001280184,0.998718707,-0.036681395,1.18E-06,-0.069739856,-3.06816879,1.71E-07,2.18E-05,-2.44E-08,0.693276883,4.39E-05,9.786356686,-0.073179588,-0.997305673,0.005112998,-4.107745275,-1.07E-08,-3.923008426,-6.90E-10,0.065709696,4.81E-08
1701864340,-4.107745275,-3.923008426,0.065709696,0.034839267,0.001280181,0.99871871,-0.036681395,1.18E-06,-0.06973969,-3.06816879,1.71E-07,2.06E-05,-2.47E-08,0.692499611,4.13E-05,9.786341625,-0.073179589,-0.997305673,0.005112988,-4.107745285,-1.02E-08,-3.923008427,-6.55E-10,0.065709744,4.86E-08
1701864340,-4.107745285,-3.923008427,0.065709744,0.034839188,0.001280179,0.998718713,-0.036681395,1.18E-06,-0.069739532,-3.06816879,1.71E-07,1.97E-05,-2.50E-08,0.691784553,3.89E-05,9.786327821,-0.07317959,-0.997305673,0.005112977,-4.107745295,-9.86E-09,-3.923008427,-6.30E-10,0.065709794,4.93E-08
1701864340,-4.107745295,-3.923008427,0.065709794,0.034839111,0.001280177,0.998718716,-0.036681395,1.18E-06,-0.069739379,-3.06816879,1.71E-07,1.90E-05,-2.53E-08,0.691126472,3.68E-05,9.786315163,-0.07317959,-0.997305673,0.005112968,-4.107745304,-9.62E-09,-3.923008428,-6.12E-10,0.065709844,5.01E-08
1701864340,-4.107745304,-3.923008428,0.065709844,0.034839036,0.001280175,0.998718718,-0.036681395,1.18E-06,-0.069739229,-3.068168791,1.71E-07,1.86E-05,-2.56E-08,0.690521071,3.48E-05,9.786303551,-0.073179591,-0.997305673,0.005112958,-4.107745314,-9.46E-09,-3.923008429,-6.00E-10,0.065709895,5.09E-08
1701864340,-4.107745314,-3.923008429,0.065709895,0.034838963,0.001280173,0.998718721,-0.036681395,1.18E-06,-0.069739082,-3.068168791,1.71E-07,1.83E-05,-2.59E-08,0.689963885,3.30E-05,9.786292897,-0.073179591,-0.997305673,0.005112949,-4.107745323,-9.37E-09,-3.923008429,-5.93E-10,0.065709946,5.18E-08
1701864340,-4.107745323,-3.923008429,0.065709946,0.03483889,0.001280171,0.998718723,-0.036681395,1.19E-06,-0.069738936,-3.068168791,1.72E-07,1.82E-05,-2.62E-08,0.689451145,3.13E-05,9.786283118,-0.073179592,-0.997305673,0.005112939,-4.107745332,-9.33E-09,-3.92300843,-5.91E-10,0.065709999,5.27E-08
1701864340,-4.107745332,-3.92300843,0.065709999,0.034838817,0.001280169,0.998718726,-0.036681395,1.19E-06,-0.06973879,-3.068168791,1.72E-07,1.81E-05,-2.65E-08,0.688979394,2.97E-05,9.786274143,-0.073179592,-0.997305673,0.00511293,-4.107745342,-9.34E-09,-3.92300843,-5.91E-10,0.065710053,5.37E-08
1701864340,-4.107745342,-3.92300843,0.065710053,0.034838744,0.001280167,0.998718728,-0.036681395,1.19E-06,-0.069738644,-3.068168791,1.72E-07,1.81E-05,-2.67E-08,0.688545106,2.83E-05,9.786265902,-0.073179593,-0.997305673,0.005112921,-4.107745351,-9.38E-09,-3.923008431,-5.94E-10,0.065710107,5.47E-08
1701864340,-4.107745351,-3.923008431,0.065710107,0.034838671,0.001280165,0.998718731,-0.036681395,1.19E-06,-0.069738498,-3.068168792,1.72E-07,1.82E-05,-2.70E-08,0.68814555,2.70E-05,9.786258337,-0.073179593,-0.997305673,0.005112911,-4.107745361,-9.44E-09,-3.923008432,-5.98E-10,0.065710163,5.57E-08
1701864340,-4.107745361,-3.923008432,0.065710163,0.034838597,0.001280163,0.998718733,-0.036681395,1.19E-06,-0.06973835,-3.068168792,1.72E-07,1.84E-05,-2.73E-08,0.68777767,2.58E-05,9.786251392,-0.073179594,-0.997305673,0.005112902,-4.10774537,-9.53E-09,-3.923008432,-6.05E-10,0.06571022,5.67E-08
1701864340,-4.10774537,-3.923008432,0.06571022,0.034838523,0.001280161,0.998718736,-0.036681395,1.19E-06,-0.069738201,-3.068168792,1.72E-07,1.85E-05,-2.76E-08,0.687439201,2.47E-05,9.786245015,-0.073179594,-0.997305673,0.005112892,-4.10774538,-9.64E-09,-3.923008433,-6.12E-10,0.065710278,5.78E-08
1701864340,-4.10774538,-3.923008433,0.065710278,0.034838447,0.001280159,0.998718739,-0.036681395,1.19E-06,-0.06973805,-3.068168792,1.72E-07,1.88E-05,-2.79E-08,0.687127547,2.37E-05,9.786239162,-0.073179595,-0.997305673,0.005112883,-4.10774539,-9.75E-09,-3.923008433,-6.21E-10,0.065710336,5.88E-08
1701864340,-4.10774539,-3.923008433,0.065710336,0.034838371,0.001280157,0.998718741,-0.036681395,1.20E-06,-0.069737897,-3.068168792,1.72E-07,1.90E-05,-2.81E-08,0.686840658,2.28E-05,9.786233789,-0.073179596,-0.997305673,0.005112873,-4.107745399,-9.88E-09,-3.923008434,-6.30E-10,0.065710396,5.99E-08
1701864340,-4.107745399,-3.923008434,0.065710396,0.034838293,0.001280154,0.998718744,-0.036681395,1.20E-06,-0.069737742,-3.068168793,1.72E-07,1.93E-05,-2.84E-08,0.686576657,2.18E-05,9.786228858,-0.073179596,-0.997305673,0.005112863,-4.107745409,-1.00E-08,-3.923008435,-6.41E-10,0.065710457,6.09E-08
1701864340,-4.107745409,-3.923008435,0.065710457,0.034838215,0.001280152,0.998718747,-0.036681395,1.20E-06,-0.069737585,-3.068168793,1.72E-07,1.96E-05,-2.87E-08,0.686333468,2.11E-05,9.786224334,-0.073179597,-0.997305673,0.005112853,-4.10774542,-1.02E-08,-3.923008435,-6.51E-10,0.065710519,6.20E-08
1701864340,-4.10774542,-3.923008435,0.065710519,0.034838135,0.00128015,0.99871875,-0.036681395,1.20E-06,-0.069737425,-3.068168793,1.72E-07,1.98E-05,-2.90E-08,0.686109697,2.03E-05,9.786220183,-0.073179597,-0.997305673,0.005112842,-4.10774543,-1.03E-08,-3.923008436,-6.62E-10,0.065710582,6.31E-08
1701864340,-4.10774543,-3.923008436,0.065710582,0.034838054,0.001280148,0.998718752,-0.036681395,1.20E-06,-0.069737263,-3.068168793,1.72E-07,2.02E-05,-2.93E-08,0.68590355,1.97E-05,9.786216377,-0.073179598,-0.997305673,0.005112832,-4.10774544,-1.05E-08,-3.923008437,-6.74E-10,0.065710646,6.42E-08
1701864340,-4.10774544,-3.923008437,0.065710646,0.034837972,0.001280145,0.998718755,-0.036681395,1.20E-06,-0.069737098,-3.068168794,1.72E-07,2.05E-05,-2.95E-08,0.685713713,1.91E-05,9.786212887,-0.073179598,-0.997305673,0.005112821,-4.107745451,-1.06E-08,-3.923008437,-6.85E-10,0.065710712,6.52E-08
1701864340,-4.107745451,-3.923008437,0.065710712,0.034837888,0.001280143,0.998718758,-0.036681395,1.20E-06,-0.069736931,-3.068168794,1.72E-07,2.08E-05,-2.98E-08,0.685538985,1.85E-05,9.786209688,-0.073179599,-0.997305673,0.00511281,-4.107745462,-1.08E-08,-3.923008438,-6.97E-10,0.065710778,6.63E-08
1701864340,-4.107745462,-3.923008438,0.065710778,0.034837804,0.001280141,0.998718761,-0.036681395,1.21E-06,-0.069736761,-3.068168794,1.72E-07,2.11E-05,-3.01E-08,0.685377914,1.80E-05,9.786206758,-0.0731796,-0.997305673,0.005112799,-4.107745473,-1.10E-08,-3.923008439,-7.09E-10,0.065710845,6.74E-08
1701864340,-4.107745473,-3.923008439,0.065710845,0.034837717,0.001280138,0.998718764,-0.036681395,1.21E-06,-0.069736589,-3.068168794,1.72E-07,2.14E-05,-3.04E-08,0.68522968,1.75E-05,9.786204075,-0.0731796,-0.997305673,0.005112788,-4.107745484,-1.11E-08,-3.923008439,-7.21E-10,0.065710914,6.85E-08
1701864340,-4.107745484,-3.923008439,0.065710914,0.03483763,0.001280136,0.998718767,-0.036681395,1.21E-06,-0.069736413,-3.068168795,1.72E-07,2.18E-05,-3.06E-08,0.685093014,1.71E-05,9.786201619,-0.073179601,-0.997305673,0.005112777,-4.107745495,-1.13E-08,-3.92300844,-7.33E-10,0.065710984,6.96E-08
1701864340,-4.107745495,-3.92300844,0.065710984,0.034837541,0.001280133,0.99871877,-0.036681395,1.21E-06,-0.069736236,-3.068168795,1.71E-07,2.21E-05,-3.09E-08,0.684967087,1.67E-05,9.786199372,-0.073179602,-0.997305673,0.005112765,-4.107745507,-1.15E-08,-3.923008441,-7.45E-10,0.065711054,7.07E-08
1701864340,-4.107745507,-3.923008441,0.065711054,0.034837451,0.00128013,0.998718774,-0.036681395,1.21E-06,-0.069736055,-3.068168795,1.71E-07,2.25E-05,-3.12E-08,0.684851145,1.63E-05,9.786197318,-0.073179602,-0.997305673,0.005112753,-4.107745518,-1.16E-08,-3.923008442,-7.58E-10,0.065711126,7.18E-08
1701864340,-4.107745518,-3.923008442,0.065711126,0.034837359,0.001280128,0.998718777,-0.036681395,1.21E-06,-0.069735872,-3.068168795,1.71E-07,2.28E-05,-3.15E-08,0.684744146,1.60E-05,9.786195442,-0.073179603,-0.997305673,0.005112741,-4.10774553,-1.18E-08,-3.923008442,-7.70E-10,0.065711199,7.29E-08
1701864340,-4.10774553,-3.923008442,0.065711199,0.034837266,0.001280125,0.99871878,-0.036681395,1.21E-06,-0.069735685,-3.068168796,1.71E-07,2.31E-05,-3.18E-08,0.684645645,1.57E-05,9.78619373,-0.073179604,-0.997305673,0.005112729,-4.107745542,-1.20E-08,-3.923008443,-7.82E-10,0.065711273,7.40E-08
1701864340,-4.107745542,-3.923008443,0.065711273,0.034837172,0.001280122,0.998718783,-0.036681395,1.22E-06,-0.069735497,-3.068168796,1.71E-07,2.35E-05,-3.20E-08,0.684554688,1.54E-05,9.786192168,-0.073179604,-0.997305673,0.005112716,-4.107745554,-1.21E-08,-3.923008444,-7.95E-10,0.065711348,7.51E-08
1701864340,-4.107745554,-3.923008444,0.065711348,0.034837076,0.001280119,0.998718787,-0.036681395,1.22E-06,-0.069735305,-3.068168796,1.71E-07,2.38E-05,-3.23E-08,0.684470941,1.51E-05,9.786190744,-0.073179605,-0.997305673,0.005112704,-4.107745566,-1.23E-08,-3.923008445,-8.07E-10,0.065711424,7.62E-08
1701864340,-4.107745566,-3.923008445,0.065711424,0.034836979,0.001280117,0.99871879,-0.036681395,1.22E-06,-0.069735111,-3.068168796,1.71E-07,2.42E-05,-3.26E-08,0.684393588,1.49E-05,9.786189449,-0.073179606,-0.997305673,0.005112691,-4.107745579,-1.25E-08,-3.923008446,-8.19E-10,0.065711501,7.73E-08
1701864340,-4.107745579,-3.923008446,0.065711501,0.034836881,0.001280114,0.998718793,-0.036681395,1.22E-06,-0.069734913,-3.068168797,1.71E-07,2.45E-05,-3.29E-08,0.684322214,1.47E-05,9.786188272,-0.073179607,-0.997305673,0.005112678,-4.107745592,-1.26E-08,-3.923008446,-8.32E-10,0.06571158,7.84E-08
1701864340,-4.107745592,-3.923008446,0.06571158,0.034836781,0.001280111,0.998718797,-0.036681395,1.22E-06,-0.069734713,-3.068168797,1.71E-07,2.49E-05,-3.31E-08,0.684256445,1.45E-05,9.786187203,-0.073179607,-0.997305673,0.005112665,-4.107745604,-1.28E-08,-3.923008447,-8.44E-10,0.065711659,7.95E-08
1701864340,-4.107745604,-3.923008447,0.065711659,0.034836679,0.001280108,0.9987188,-0.036681395,1.22E-06,-0.069734511,-3.068168797,1.71E-07,2.52E-05,-3.34E-08,0.684195589,1.43E-05,9.786186234,-0.073179608,-0.997305673,0.005112651,-4.107745617,-1.30E-08,-3.923008448,-8.57E-10,0.06571174,8.05E-08
1701864340,-4.107745617,-3.923008448,0.06571174,0.034836577,0.001280105,0.998718804,-0.036681395,1.22E-06,-0.069734305,-3.068168798,1.71E-07,2.56E-05,-3.37E-08,0.684139525,1.41E-05,9.786185357,-0.073179609,-0.997305673,0.005112638,-4.107745631,-1.32E-08,-3.923008449,-8.69E-10,0.065711821,8.16E-08
1701864340,-4.107745631,-3.923008449,0.065711821,0.034836473,0.001280101,0.998718808,-0.036681395,1.22E-06,-0.069734097,-3.068168798,1.71E-07,2.59E-05,-3.40E-08,0.684087629,1.40E-05,9.786184566,-0.07317961,-0.997305673,0.005112624,-4.107745644,-1.33E-08,-3.92300845,-8.82E-10,0.065711904,8.27E-08
1701864340,-4.107745644,-3.92300845,0.065711904,0.034836367,0.001280098,0.998718811,-0.036681395,1.23E-06,-0.069733886,-3.068168798,1.71E-07,2.62E-05,-3.43E-08,0.684039664,1.39E-05,9.786183853,-0.073179611,-0.997305673,0.00511261,-4.107745657,-1.35E-08,-3.923008451,-8.94E-10,0.065711988,8.38E-08
1701864340,-4.107745657,-3.923008451,0.065711988,0.03483626,0.001280095,0.998718815,-0.036681395,1.23E-06,-0.069733672,-3.068168798,1.71E-07,2.66E-05,-3.45E-08,0.68399542,1.37E-05,9.786183212,-0.073179611,-0.997305673,0.005112595,-4.107745671,-1.37E-08,-3.923008452,-9.06E-10,0.065712073,8.49E-08
1701864340,-4.107745671,-3.923008452,0.065712073,0.034836152,0.001280092,0.998718819,-0.036681395,1.23E-06,-0.069733455,-3.068168799,1.71E-07,2.69E-05,-3.48E-08,0.683954357,1.37E-05,9.786182638,-0.073179612,-0.997305673,0.005112581,-4.107745685,-1.38E-08,-3.923008453,-9.19E-10,0.065712159,8.60E-08
1701864340,-4.107745685,-3.923008453,0.065712159,0.034836043,0.001280088,0.998718823,-0.036681395,1.23E-06,-0.069733236,-3.068168799,1.71E-07,2.73E-05,-3.51E-08,0.683916491,1.35E-05,9.786182125,-0.073179613,-0.997305673,0.005112566,-4.107745699,-1.40E-08,-3.923008454,-9.31E-10,0.065712246,8.71E-08
1701864340,-4.107745699,-3.923008454,0.065712246,0.034835932,0.001280085,0.998718827,-0.036681395,1.23E-06,-0.069733013,-3.068168799,1.71E-07,2.76E-05,-3.54E-08,0.683881291,1.35E-05,9.786181669,-0.073179614,-0.997305673,0.005112551,-4.107745713,-1.42E-08,-3.923008454,-9.43E-10,0.065712334,8.82E-08
1701864340,-4.107745713,-3.923008454,0.065712334,0.034835819,0.001280082,0.99871883,-0.036681395,1.23E-06,-0.069732788,-3.068168799,1.71E-07,2.80E-05,-3.56E-08,0.683848815,1.33E-05,9.786181266,-0.073179615,-0.997305673,0.005112536,-4.107745727,-1.43E-08,-3.923008455,-9.56E-10,0.065712424,8.93E-08
1701864340,-4.107745727,-3.923008455,0.065712424,0.034835705,0.001280078,0.998718834,-0.036681395,1.23E-06,-0.06973256,-3.0681688,1.71E-07,2.83E-05,-3.59E-08,0.683818605,1.33E-05,9.786180911,-0.073179616,-0.997305673,0.005112521,-4.107745742,-1.45E-08,-3.923008456,-9.68E-10,0.065712514,9.04E-08
1701864340,-4.107745742,-3.923008456,0.065712514,0.03483559,0.001280075,0.998718838,-0.036681395,1.24E-06,-0.06973233,-3.0681688,1.71E-07,2.87E-05,-3.62E-08,0.683790575,1.32E-05,9.7861806,-0.073179617,-0.997305673,0.005112505,-4.107745757,-1.47E-08,-3.923008457,-9.80E-10,0.065712606,9.15E-08
1701864340,-4.107745757,-3.923008457,0.065712606,0.034835473,0.001280071,0.998718843,-0.036681395,1.24E-06,-0.069732096,-3.0681688,1.71E-07,2.90E-05,-3.65E-08,0.683764657,1.31E-05,9.786180331,-0.073179617,-0.997305673,0.00511249,-4.107745771,-1.48E-08,-3.923008458,-9.93E-10,0.065712698,9.26E-08
1701864340,-4.107745771,-3.923008458,0.065712698,0.034835355,0.001280067,0.998718847,-0.036681395,1.24E-06,-0.06973186,-3.068168801,1.71E-07,2.94E-05,-3.68E-08,0.683740438,1.31E-05,9.7861801,-0.073179618,-0.997305673,0.005112474,-4.107745786,-1.50E-08,-3.923008459,-1.01E-09,0.065712792,9.37E-08
1701864340,-4.107745786,-3.923008459,0.065712792,0.034835236,0.001280064,0.998718851,-0.036681395,1.24E-06,-0.069731621,-3.068168801,1.71E-07,2.97E-05,-3.70E-08,0.683718053,1.30E-05,9.786179904,-0.073179619,-0.997305673,0.005112458,-4.107745802,-1.52E-08,-3.92300846,-1.02E-09,0.065712887,9.48E-08
1701864340,-4.107745802,-3.92300846,0.065712887,0.034835115,0.00128006,0.998718855,-0.036681395,1.24E-06,-0.069731379,-3.068168801,1.71E-07,3.01E-05,-3.73E-08,0.683697116,1.30E-05,9.786179741,-0.07317962,-0.997305673,0.005112441,-4.107745817,-1.53E-08,-3.923008461,-1.03E-09,0.065712983,9.59E-08
1701864340,-4.107745817,-3.923008461,0.065712983,0.034834993,0.001280056,0.998718859,-0.036681395,1.24E-06,-0.069731134,-3.068168802,1.71E-07,3.04E-05,-3.76E-08,0.683677607,1.30E-05,9.786179608,-0.073179621,-0.997305673,0.005112425,-4.107745832,-1.55E-08,-3.923008462,-1.04E-09,0.06571308,9.70E-08
1701864340,-4.107745832,-3.923008462,0.06571308,0.034834869,0.001280052,0.998718864,-0.036681395,1.24E-06,-0.069730887,-3.068168802,1.71E-07,3.08E-05,-3.79E-08,0.683659516,1.29E-05,9.786179502,-0.073179622,-0.997305673,0.005112408,-4.107745848,-1.57E-08,-3.923008464,-1.05E-09,0.065713178,9.81E-08
1701864340,-4.107745848,-3.923008464,0.065713178,0.034834744,0.001280048,0.998718868,-0.036681395,1.25E-06,-0.069730637,-3.068168802,1.71E-07,3.11E-05,-3.81E-08,0.683642487,1.29E-05,9.786179422,-0.073179623,-0.997305673,0.005112391,-4.107745864,-1.59E-08,-3.923008465,-1.07E-09,0.065713277,9.92E-08
1701864340,-4.107745864,-3.923008465,0.065713277,0.034834618,0.001280044,0.998718872,-0.036681395,1.25E-06,-0.069730383,-3.068168802,1.71E-07,3.15E-05,-3.84E-08,0.683626707,1.28E-05,9.786179367,-0.073179624,-0.997305673,0.005112374,-4.10774588,-1.60E-08,-3.923008466,-1.08E-09,0.065713377,1.00E-07
1701864340,-4.10774588,-3.923008466,0.065713377,0.03483449,0.00128004,0.998718877,-0.036681395,1.25E-06,-0.069730128,-3.068168803,1.71E-07,3.18E-05,-3.87E-08,0.683611835,1.28E-05,9.786179333,-0.073179625,-0.997305673,0.005112357,-4.107745896,-1.62E-08,-3.923008467,-1.09E-09,0.065713478,1.01E-07
1701864340,-4.107745896,-3.923008467,0.065713478,0.034834361,0.001280036,0.998718881,-0.036681396,1.25E-06,-0.069729869,-3.068168803,1.71E-07,3.22E-05,-3.90E-08,0.683597895,1.28E-05,9.78617932,-0.073179626,-0.997305673,0.005112339,-4.107745913,-1.64E-08,-3.923008468,-1.10E-09,0.065713581,1.02E-07
1701864340,-4.107745913,-3.923008468,0.065713581,0.034834231,0.001280032,0.998718886,-0.036681396,1.25E-06,-0.069729608,-3.068168803,1.71E-07,3.25E-05,-3.93E-08,0.683584916,1.27E-05,9.786179326,-0.073179627,-0.997305673,0.005112321,-4.107745929,-1.65E-08,-3.923008469,-1.12E-09,0.065713684,1.04E-07
1701864340,-4.107745929,-3.923008469,0.065713684,0.034834099,0.001280028,0.998718891,-0.036681396,1.25E-06,-0.069729343,-3.068168804,1.71E-07,3.28E-05,-3.95E-08,0.68357258,1.28E-05,9.786179349,-0.073179628,-0.997305673,0.005112303,-4.107745946,-1.67E-08,-3.92300847,-1.13E-09,0.065713789,1.05E-07
1701864340,-4.107745946,-3.92300847,0.065713789,0.034833965,0.001280024,0.998718895,-0.036681396,1.25E-06,-0.069729076,-3.068168804,1.71E-07,3.32E-05,-3.98E-08,0.683561106,1.27E-05,9.786179389,-0.073179629,-0.997305674,0.005112285,-4.107745963,-1.69E-08,-3.923008471,-1.14E-09,0.065713895,1.06E-07
1701864340,-4.107745963,-3.923008471,0.065713895,0.03483383,0.00128002,0.9987189,-0.036681396,1.26E-06,-0.069728806,-3.068168804,1.71E-07,3.35E-05,-4.01E-08,0.683550149,1.27E-05,9.786179444,-0.07317963,-0.997305674,0.005112267,-4.10774598,-1.70E-08,-3.923008472,-1.15E-09,0.065714002,1.07E-07
1701864340,-4.10774598,-3.923008472,0.065714002,0.034833694,0.001280015,0.998718905,-0.036681396,1.26E-06,-0.069728534,-3.068168805,1.71E-07,3.39E-05,-4.04E-08,0.68353994,1.27E-05,9.786179513,-0.073179631,-0.997305674,0.005112248,-4.107745997,-1.72E-08,-3.923008474,-1.16E-09,0.06571411,1.08E-07
1701864340,-4.107745997,-3.923008474,0.06571411,0.034833557,0.001280011,0.998718909,-0.036681396,1.26E-06,-0.069728258,-3.068168805,1.71E-07,3.42E-05,-4.06E-08,0.683530177,1.27E-05,9.786179596,-0.073179632,-0.997305674,0.005112229,-4.107746014,-1.74E-08,-3.923008475,-1.18E-09,0.065714219,1.09E-07
1701864340,-4.107746014,-3.923008475,0.065714219,0.034833418,0.001280007,0.998718914,-0.036681396,1.26E-06,-0.06972798,-3.068168805,1.71E-07,3.46E-05,-4.09E-08,0.683520923,1.27E-05,9.786179691,-0.073179633,-0.997305674,0.00511221,-4.107746032,-1.75E-08,-3.923008476,-1.19E-09,0.065714329,1.10E-07
1701864340,-4.107746032,-3.923008476,0.065714329,0.034833277,0.001280002,0.998718919,-0.036681396,1.26E-06,-0.069727699,-3.068168806,1.71E-07,3.49E-05,-4.12E-08,0.68351224,1.27E-05,9.786179797,-0.073179635,-0.997305674,0.005112191,-4.107746049,-1.77E-08,-3.923008477,-1.20E-09,0.06571444,1.11E-07
1701864340,-4.107746049,-3.923008477,0.06571444,0.034833136,0.001279998,0.998718924,-0.036681396,1.26E-06,-0.069727415,-3.068168806,1.71E-07,3.53E-05,-4.15E-08,0.68350384,1.27E-05,9.786179914,-0.073179636,-0.997305674,0.005112172,-4.107746067,-1.78E-08,-3.923008478,-1.21E-09,0.065714552,1.12E-07
1701864340,-4.107746067,-3.923008478,0.065714552,0.034832993,0.001279993,0.998718929,-0.036681396,1.26E-06,-0.069727129,-3.068168806,1.71E-07,3.56E-05,-4.17E-08,0.683495973,1.26E-05,9.786180041,-0.073179637,-0.997305674,0.005112152,-4.107746085,-1.80E-08,-3.92300848,-1.22E-09,0.065714666,1.13E-07
1701864340,-4.107746085,-3.92300848,0.065714666,0.034832848,0.001279988,0.998718934,-0.036681396,1.27E-06,-0.069726839,-3.068168807,1.71E-07,3.60E-05,-4.20E-08,0.683488354,1.27E-05,9.786180177,-0.073179638,-0.997305674,0.005112132,-4.107746103,-1.82E-08,-3.923008481,-1.24E-09,0.06571478,1.15E-07
1701864340,-4.107746103,-3.923008481,0.06571478,0.034832702,0.001279984,0.998718939,-0.036681396,1.27E-06,-0.069726547,-3.068168807,1.71E-07,3.63E-05,-4.23E-08,0.68348106,1.27E-05,9.786180322,-0.073179639,-0.997305674,0.005112112,-4.107746122,-1.83E-08,-3.923008482,-1.25E-09,0.065714896,1.16E-07
1701864340,-4.107746122,-3.923008482,0.065714896,0.034832555,0.001279979,0.998718944,-0.036681396,1.27E-06,-0.069726252,-3.068168807,1.71E-07,3.67E-05,-4.26E-08,0.683474171,1.26E-05,9.786180475,-0.07317964,-0.997305674,0.005112092,-4.10774614,-1.85E-08,-3.923008483,-1.26E-09,0.065715013,1.17E-07
1701864340,-4.10774614,-3.923008483,0.065715013,0.034832406,0.001279974,0.99871895,-0.036681396,1.27E-06,-0.069725954,-3.068168808,1.71E-07,3.70E-05,-4.29E-08,0.68346741,1.27E-05,9.786180636,-0.073179641,-0.997305674,0.005112072,-4.107746159,-1.87E-08,-3.923008485,-1.27E-09,0.065715131,1.18E-07
1701864340,-4.107746159,-3.923008485,0.065715131,0.034832256,0.001279969,0.998718955,-0.036681396,1.27E-06,-0.069725654,-3.068168808,1.71E-07,3.74E-05,-4.31E-08,0.683461039,1.27E-05,9.786180804,-0.073179643,-0.997305674,0.005112051,-4.107746178,-1.88E-08,-3.923008486,-1.28E-09,0.065715249,1.19E-07
1701864340,-4.107746178,-3.923008486,0.065715249,0.034832104,0.001279965,0.99871896,-0.036681396,1.27E-06,-0.06972535,-3.068168808,1.71E-07,3.77E-05,-4.34E-08,0.68345475,1.27E-05,9.786180979,-0.073179644,-0.997305674,0.00511203,-4.107746197,-1.90E-08,-3.923008487,-1.30E-09,0.065715369,1.20E-07
1701864340,-4.107746197,-3.923008487,0.065715369,0.034831951,0.00127996,0.998718965,-0.036681396,1.27E-06,-0.069725044,-3.068168809,1.71E-07,3.81E-05,-4.37E-08,0.68344881,1.27E-05,9.78618116,-0.073179645,-0.997305674,0.005112009,-4.107746216,-1.92E-08,-3.923008488,-1.31E-09,0.065715491,1.21E-07
1701864340,-4.107746216,-3.923008488,0.065715491,0.034831797,0.001279955,0.998718971,-0.036681396,1.28E-06,-0.069724735,-3.068168809,1.71E-07,3.84E-05,-4.40E-08,0.683442949,1.27E-05,9.786181347,-0.073179646,-0.997305674,0.005111988,-4.107746235,-1.93E-08,-3.92300849,-1.32E-09,0.065715613,1.22E-07
1701864340,-4.107746235,-3.92300849,0.065715613,0.034831641,0.00127995,0.998718976,-0.036681396,1.28E-06,-0.069724424,-3.068168809,1.71E-07,3.88E-05,-4.42E-08,0.683437257,1.27E-05,9.78618154,-0.073179648,-0.997305674,0.005111967,-4.107746255,-1.95E-08,-3.923008491,-1.33E-09,0.065715736,1.23E-07
1701864340,-4.107746255,-3.923008491,0.065715736,0.034831484,0.001279945,0.998718982,-0.036681396,1.28E-06,-0.069724109,-3.06816881,1.71E-07,3.91E-05,-4.45E-08,0.683431826,1.27E-05,9.786181739,-0.073179649,-0.997305674,0.005111945,-4.107746274,-1.97E-08,-3.923008492,-1.34E-09,0.06571586,1.24E-07
1701864340,-4.107746274,-3.923008492,0.06571586,0.034831326,0.001279939,0.998718987,-0.036681396,1.28E-06,-0.069723792,-3.06816881,1.71E-07,3.95E-05,-4.48E-08,0.683426391,1.27E-05,9.786181943,-0.07317965,-0.997305674,0.005111923,-4.107746294,-1.98E-08,-3.923008494,-1.36E-09,0.065715986,1.25E-07
1701864340,-4.107746294,-3.923008494,0.065715986,0.034831166,0.001279934,0.998718993,-0.036681396,1.28E-06,-0.069723471,-3.068168811,1.71E-07,3.98E-05,-4.51E-08,0.683421225,1.27E-05,9.786182151,-0.073179651,-0.997305674,0.005111901,-4.107746314,-2.00E-08,-3.923008495,-1.37E-09,0.065716112,1.27E-07
1701864341,-4.107746314,-3.923008495,0.065716112,0.034831005,0.001279929,0.998718999,-0.036681396,1.28E-06,-0.069723149,-3.068168811,1.70E-07,4.01E-05,-4.54E-08,0.683416065,1.27E-05,9.786182364,-0.073179653,-0.997305674,0.005111879,-4.107746334,-2.02E-08,-3.923008497,-1.38E-09,0.06571624,1.28E-07
1701864341,-4.107746334,-3.923008497,0.06571624,0.034830842,0.001279924,0.998719004,-0.036681396,1.28E-06,-0.069722823,-3.068168811,1.70E-07,4.05E-05,-4.56E-08,0.683411007,1.28E-05,9.786182582,-0.073179654,-0.997305674,0.005111856,-4.107746355,-2.03E-08,-3.923008498,-1.39E-09,0.065716369,1.29E-07
1701864341,-4.107746355,-3.923008498,0.065716369,0.034830678,0.001279918,0.99871901,-0.036681397,1.29E-06,-0.069722494,-3.068168812,1.70E-07,4.08E-05,-4.59E-08,0.683406149,1.27E-05,9.786182804,-0.073179655,-0.997305674,0.005111834,-4.107746375,-2.05E-08,-3.923008499,-1.40E-09,0.065716499,1.30E-07
1701864341,-4.107746375,-3.923008499,0.065716499,0.034830512,0.001279913,0.998719016,-0.036681397,1.29E-06,-0.069722163,-3.068168812,1.70E-07,4.12E-05,-4.62E-08,0.68340123,1.28E-05,9.78618303,-0.073179657,-0.997305674,0.005111811,-4.107746396,-2.06E-08,-3.923008501,-1.42E-09,0.06571663,1.31E-07
1701864341,-4.107746396,-3.923008501,0.06571663,0.034830345,0.001279908,0.998719022,-0.036681397,1.29E-06,-0.069721829,-3.068168812,1.70E-07,4.15E-05,-4.65E-08,0.683396528,1.27E-05,9.786183259,-0.073179658,-0.997305674,0.005111788,-4.107746417,-2.08E-08,-3.923008502,-1.43E-09,0.065716762,1.32E-07
1701864341,-4.107746417,-3.923008502,0.065716762,0.034830177,0.001279902,0.998719027,-0.036681397,1.29E-06,-0.069721492,-3.068168813,1.70E-07,4.19E-05,-4.67E-08,0.683391784,1.28E-05,9.786183493,-0.073179659,-0.997305674,0.005111764,-4.107746438,-2.10E-08,-3.923008504,-1.44E-09,0.065716895,1.33E-07
1701864341,-4.107746438,-3.923008504,0.065716895,0.034830007,0.001279897,0.998719033,-0.036681397,1.29E-06,-0.069721152,-3.068168813,1.70E-07,4.22E-05,-4.70E-08,0.683387098,1.28E-05,9.78618373,-0.073179661,-0.997305674,0.005111741,-4.107746459,-2.11E-08,-3.923008505,-1.45E-09,0.065717029,1.34E-07
1701864341,-4.107746459,-3.923008505,0.065717029,0.034829836,0.001279891,0.998719039,-0.036681397,1.29E-06,-0.06972081,-3.068168814,1.70E-07,4.26E-05,-4.73E-08,0.683382571,1.28E-05,9.78618397,-0.073179662,-0.997305674,0.005111717,-4.10774648,-2.13E-08,-3.923008507,-1.46E-09,0.065717164,1.35E-07
1701864341,-4.10774648,-3.923008507,0.065717164,0.034829664,0.001279885,0.998719045,-0.036681397,1.29E-06,-0.069720464,-3.068168814,1.70E-07,4.29E-05,-4.76E-08,0.683377945,1.28E-05,9.786184214,-0.073179663,-0.997305674,0.005111693,-4.107746501,-2.15E-08,-3.923008508,-1.48E-09,0.065717301,1.36E-07
1701864341,-4.107746501,-3.923008508,0.065717301,0.03482949,0.00127988,0.998719051,-0.036681397,1.29E-06,-0.069720116,-3.068168814,1.70E-07,4.33E-05,-4.79E-08,0.683373502,1.28E-05,9.786184461,-0.073179665,-0.997305674,0.005111669,-4.107746523,-2.16E-08,-3.92300851,-1.49E-09,0.065717438,1.38E-07
1701864341,-4.107746523,-3.92300851,0.065717438,0.034829315,0.001279874,0.998719058,-0.036681397,1.30E-06,-0.069719765,-3.068168815,1.70E-07,4.36E-05,-4.81E-08,0.68336895,1.29E-05,9.786184711,-0.073179666,-0.997305674,0.005111645,-4.107746545,-2.18E-08,-3.923008511,-1.50E-09,0.065717577,1.39E-07
1701864341,-4.107746545,-3.923008511,0.065717577,0.034829138,0.001279868,0.998719064,-0.036681397,1.30E-06,-0.069719412,-3.068168815,1.70E-07,4.40E-05,-4.84E-08,0.683364569,1.28E-05,9.786184964,-0.073179668,-0.997305674,0.00511162,-4.107746567,-2.19E-08,-3.923008513,-1.51E-09,0.065717717,1.40E-07
1701864341,-4.107746567,-3.923008513,0.065717717,0.03482896,0.001279862,0.99871907,-0.036681397,1.30E-06,-0.069719055,-3.068168815,1.70E-07,4.43E-05,-4.87E-08,0.683360106,1.29E-05,9.78618522,-0.073179669,-0.997305674,0.005111596,-4.107746589,-2.21E-08,-3.923008514,-1.52E-09,0.065717858,1.41E-07
1701864341,-4.107746589,-3.923008514,0.065717858,0.034828781,0.001279856,0.998719076,-0.036681397,1.30E-06,-0.069718696,-3.068168816,1.70E-07,4.47E-05,-4.90E-08,0.683355663,1.29E-05,9.786185479,-0.07317967,-0.997305674,0.005111571,-4.107746611,-2.23E-08,-3.923008516,-1.53E-09,0.065718,1.42E-07
1701864341,-4.107746611,-3.923008516,0.065718,0.0348286,0.00127985,0.998719082,-0.036681397,1.30E-06,-0.069718334,-3.068168816,1.70E-07,4.50E-05,-4.92E-08,0.683351344,1.29E-05,9.786185741,-0.073179672,-0.997305674,0.005111545,-4.107746634,-2.24E-08,-3.923008517,-1.55E-09,0.065718143,1.43E-07
1701864341,-4.107746634,-3.923008517,0.065718143,0.034828418,0.001279844,0.998719089,-0.036681397,1.30E-06,-0.069717969,-3.068168817,1.70E-07,4.54E-05,-4.95E-08,0.683346895,1.29E-05,9.786186005,-0.073179673,-0.997305674,0.00511152,-4.107746656,-2.26E-08,-3.923008519,-1.56E-09,0.065718287,1.44E-07
1701864341,-4.107746656,-3.923008519,0.065718287,0.034828234,0.001279838,0.998719095,-0.036681397,1.30E-06,-0.069717601,-3.068168817,1.70E-07,4.57E-05,-4.98E-08,0.683342598,1.29E-05,9.786186272,-0.073179675,-0.997305674,0.005111495,-4.107746679,-2.27E-08,-3.92300852,-1.57E-09,0.065718432,1.45E-07
1701864341,-4.107746679,-3.92300852,0.065718432,0.034828049,0.001279832,0.998719102,-0.036681397,1.31E-06,-0.069717231,-3.068168817,1.70E-07,4.61E-05,-5.01E-08,0.683338201,1.29E-05,9.786186541,-0.073179676,-0.997305674,0.005111469,-4.107746702,-2.29E-08,-3.923008522,-1.58E-09,0.065718578,1.46E-07
1701864341,-4.107746702,-3.923008522,0.065718578,0.034827863,0.001279826,0.998719108,-0.036681397,1.31E-06,-0.069716857,-3.068168818,1.70E-07,4.64E-05,-5.03E-08,0.683333808,1.30E-05,9.786186813,-0.073179678,-0.997305674,0.005111443,-4.107746725,-2.31E-08,-3.923008523,-1.59E-09,0.065718725,1.47E-07
1701864341,-4.107746725,-3.923008523,0.065718725,0.034827674,0.00127982,0.998719115,-0.036681397,1.31E-06,-0.06971648,-3.068168818,1.81E-07,4.69E-05,-5.14E-08,0.683329879,1.29E-05,9.786183494,-0.073179679,-0.997305674,0.005111417,-4.107746748,-2.33E-08,-3.923008525,-1.60E-09,0.065718874,1.48E-07
1701864341,-4.107746748,-3.923008525,0.065718874,0.034827485,0.001279814,0.998719121,-0.036681398,1.31E-06,-0.0697161,-3.068168819,1.79E-07,4.72E-05,-5.15E-08,0.683324904,1.30E-05,9.786187897,-0.073179681,-0.997305674,0.00511139,-4.107746772,-2.34E-08,-3.923008527,-1.62E-09,0.065719023,1.49E-07
1701864341,-4.107746772,-3.923008527,0.065719023,0.034827294,0.001279807,0.998719128,-0.036681398,1.31E-06,-0.069715718,-3.068168819,1.77E-07,4.75E-05,-5.17E-08,0.683320734,1.30E-05,9.78618824,-0.073179682,-0.997305674,0.005111364,-4.107746795,-2.36E-08,-3.923008528,-1.63E-09,0.065719174,1.51E-07
1701864341,-4.107746795,-3.923008528,0.065719174,0.034827101,0.001279801,0.998719135,-0.036681398,1.31E-06,-0.069715333,-3.06816882,1.76E-07,4.79E-05,-5.19E-08,0.683316294,1.30E-05,9.786188405,-0.073179684,-0.997305674,0.005111337,-4.107746819,-2.37E-08,-3.92300853,-1.64E-09,0.065719326,1.52E-07
1701864341,-4.107746819,-3.92300853,0.065719326,0.034826908,0.001279795,0.998719142,-0.036681398,1.31E-06,-0.069714945,-3.06816882,1.75E-07,4.82E-05,-5.21E-08,0.683311991,1.30E-05,9.786188593,-0.073179686,-0.997305674,0.00511131,-4.107746843,-2.39E-08,-3.923008532,-1.65E-09,0.065719478,1.53E-07
1701864341,-4.107746843,-3.923008532,0.065719478,0.034826713,0.001279788,0.998719148,-0.036681398,1.32E-06,-0.069714555,-3.06816882,1.74E-07,4.85E-05,-5.23E-08,0.683307574,1.30E-05,9.786188803,-0.073179687,-0.997305674,0.005111283,-4.107746867,-2.40E-08,-3.923008533,-1.66E-09,0.065719632,1.54E-07
1701864341,-4.107746867,-3.923008533,0.065719632,0.034826516,0.001279782,0.998719155,-0.036681398,1.32E-06,-0.069714162,-3.068168821,1.73E-07,4.89E-05,-5.25E-08,0.683303148,1.31E-05,9.786189031,-0.073179689,-0.997305674,0.005111256,-4.107746891,-2.42E-08,-3.923008535,-1.67E-09,0.065719787,1.55E-07
1701864341,-4.107746891,-3.923008535,0.065719787,0.034826319,0.001279775,0.998719162,-0.036681398,1.32E-06,-0.069713766,-3.068168821,1.73E-07,4.92E-05,-5.28E-08,0.683298819,1.30E-05,9.786189273,-0.07317969,-0.997305674,0.005111228,-4.107746915,-2.44E-08,-3.923008537,-1.69E-09,0.065719943,1.56E-07
1701864341,-4.107746915,-3.923008537,0.065719943,0.034826119,0.001279769,0.998719169,-0.036681398,1.32E-06,-0.069713367,-3.068168822,1.72E-07,4.96E-05,-5.30E-08,0.683294335,1.31E-05,9.786189527,-0.073179692,-0.997305674,0.0051112,-4.10774694,-2.45E-08,-3.923008538,-1.70E-09,0.065720101,1.57E-07
1701864341,-4.10774694,-3.923008538,0.065720101,0.034825919,0.001279762,0.998719176,-0.036681398,1.32E-06,-0.069712966,-3.068168822,1.72E-07,4.99E-05,-5.33E-08,0.68328998,1.30E-05,9.786189791,-0.073179694,-0.997305674,0.005111172,-4.107746965,-2.47E-08,-3.92300854,-1.71E-09,0.065720259,1.58E-07
1701864341,-4.107746965,-3.92300854,0.065720259,0.034825717,0.001279755,0.998719183,-0.036681398,1.32E-06,-0.069712562,-3.068168823,1.72E-07,5.02E-05,-5.35E-08,0.683285504,1.31E-05,9.786190063,-0.073179695,-0.997305675,0.005111144,-4.107746989,-2.48E-08,-3.923008542,-1.72E-09,0.065720418,1.59E-07
1701864341,-4.107746989,-3.923008542,0.065720418,0.034825514,0.001279748,0.99871919,-0.036681398,1.32E-06,-0.069712155,-3.068168823,1.71E-07,5.06E-05,-5.38E-08,0.683281012,1.31E-05,9.786190343,-0.073179697,-0.997305675,0.005111116,-4.107747014,-2.50E-08,-3.923008544,-1.73E-09,0.065720579,1.61E-07
1701864341,-4.107747014,-3.923008544,0.065720579,0.034825309,0.001279742,0.998719197,-0.036681398,1.33E-06,-0.069711745,-3.068168823,1.71E-07,5.09E-05,-5.40E-08,0.68327661,1.31E-05,9.786190628,-0.073179698,-0.997305675,0.005111087,-4.10774704,-2.51E-08,-3.923008545,-1.74E-09,0.065720741,1.62E-07
1701864341,-4.10774704,-3.923008545,0.065720741,0.034825103,0.001279735,0.998719205,-0.036681398,1.33E-06,-0.069711332,-3.068168824,1.71E-07,5.13E-05,-5.43E-08,0.683272049,1.31E-05,9.786190919,-0.0731797,-0.997305675,0.005111058,-4.107747065,-2.53E-08,-3.923008547,-1.76E-09,0.065720903,1.63E-07
1701864341,-4.107747065,-3.923008547,0.065720903,0.034824896,0.001279728,0.998719212,-0.036681398,1.33E-06,-0.069710917,-3.068168824,1.71E-07,5.16E-05,-5.46E-08,0.683267611,1.31E-05,9.786191215,-0.073179702,-0.997305675,0.005111029,-4.10774709,-2.55E-08,-3.923008549,-1.77E-09,0.065721067,1.64E-07
1701864341,-4.10774709,-3.923008549,0.065721067,0.034824687,0.001279721,0.998719219,-0.036681398,1.33E-06,-0.069710499,-3.068168825,1.71E-07,5.20E-05,-5.49E-08,0.683263048,1.31E-05,9.786191514,-0.073179704,-0.997305675,0.005111,-4.107747116,-2.56E-08,-3.923008551,-1.78E-09,0.065721232,1.65E-07
1701864341,-4.107747116,-3.923008551,0.065721232,0.034824477,0.001279714,0.998719226,-0.036681399,1.33E-06,-0.069710078,-3.068168825,1.71E-07,5.23E-05,-5.51E-08,0.683258465,1.32E-05,9.786191817,-0.073179705,-0.997305675,0.00511097,-4.107747142,-2.58E-08,-3.923008552,-1.79E-09,0.065721398,1.66E-07
1701864341,-4.107747142,-3.923008552,0.065721398,0.034824265,0.001279707,0.998719234,-0.036681399,1.33E-06,-0.069709654,-3.068168826,1.70E-07,5.27E-05,-5.54E-08,0.683253968,1.31E-05,9.786192124,-0.073179707,-0.997305675,0.005110941,-4.107747168,-2.59E-08,-3.923008554,-1.80E-09,0.065721565,1.67E-07
1701864341,-4.107747168,-3.923008554,0.065721565,0.034824052,0.0012797,0.998719241,-0.036681399,1.33E-06,-0.069709228,-3.068168826,1.70E-07,5.30E-05,-5.57E-08,0.683249308,1.32E-05,9.786192434,-0.073179709,-0.997305675,0.005110911,-4.107747194,-2.61E-08,-3.923008556,-1.81E-09,0.065721733,1.68E-07
1701864341,-4.107747194,-3.923008556,0.065721733,0.034823838,0.001279692,0.998719249,-0.036681399,1.34E-06,-0.069708799,-3.068168826,1.70E-07,5.34E-05,-5.59E-08,0.683244769,1.32E-05,9.786192746,-0.07317971,-0.997305675,0.005110881,-4.10774722,-2.62E-08,-3.923008558,-1.83E-09,0.065721903,1.69E-07
1701864341,-4.10774722,-3.923008558,0.065721903,0.034823622,0.001279685,0.998719256,-0.036681399,1.34E-06,-0.069708367,-3.068168827,1.70E-07,5.37E-05,-5.62E-08,0.683240065,1.32E-05,9.786193062,-0.073179712,-0.997305675,0.005110851,-4.107747246,-2.64E-08,-3.92300856,-1.84E-09,0.065722073,1.70E-07
1701864341,-4.107747246,-3.92300856,0.065722073,0.034823405,0.001279678,0.998719264,-0.036681399,1.34E-06,-0.069707932,-3.068168827,1.70E-07,5.41E-05,-5.65E-08,0.683235481,1.32E-05,9.786193379,-0.073179714,-0.997305675,0.00511082,-4.107747273,-2.66E-08,-3.923008561,-1.85E-09,0.065722245,1.71E-07
1701864341,-4.107747273,-3.923008561,0.065722245,0.034823186,0.00127967,0.998719271,-0.036681399,1.34E-06,-0.069707494,-3.068168828,1.70E-07,5.44E-05,-5.68E-08,0.683230768,1.32E-05,9.7861937,-0.073179716,-0.997305675,0.00511079,-4.1077473,-2.67E-08,-3.923008563,-1.86E-09,0.065722417,1.73E-07
1701864341,-4.1077473,-3.923008563,0.065722417,0.034822966,0.001279663,0.998719279,-0.036681399,1.34E-06,-0.069707054,-3.068168828,1.70E-07,5.48E-05,-5.71E-08,0.683226032,1.33E-05,9.786194022,-0.073179718,-0.997305675,0.005110759,-4.107747326,-2.69E-08,-3.923008565,-1.87E-09,0.065722591,1.74E-07
1701864341,-4.107747326,-3.923008565,0.065722591,0.034822745,0.001279656,0.998719287,-0.036681399,1.34E-06,-0.06970661,-3.068168829,1.70E-07,5.51E-05,-5.73E-08,0.683221379,1.32E-05,9.786194347,-0.073179719,-0.997305675,0.005110728,-4.107747353,-2.70E-08,-3.923008567,-1.88E-09,0.065722766,1.75E-07
1701864341,-4.107747353,-3.923008567,0.065722766,0.034822522,0.001279648,0.998719295,-0.036681399,1.34E-06,-0.069706164,-3.068168829,1.70E-07,5.54E-05,-5.76E-08,0.683216559,1.33E-05,9.786194674,-0.073179721,-0.997305675,0.005110696,-4.107747381,-2.72E-08,-3.923008569,-1.89E-09,0.065722942,1.76E-07
1701864341,-4.107747381,-3.923008569,0.065722942,0.034822298,0.001279641,0.998719302,-0.036681399,1.35E-06,-0.069705716,-3.06816883,1.70E-07,5.58E-05,-5.79E-08,0.683211858,1.33E-05,9.786195003,-0.073179723,-0.997305675,0.005110665,-4.107747408,-2.73E-08,-3.923008571,-1.91E-09,0.065723119,1.77E-07
1701864341,-4.107747408,-3.923008571,0.065723119,0.034822073,0.001279633,0.99871931,-0.036681399,1.35E-06,-0.069705264,-3.06816883,1.70E-07,5.61E-05,-5.82E-08,0.683207026,1.33E-05,9.786195334,-0.073179725,-0.997305675,0.005110633,-4.107747435,-2.75E-08,-3.923008573,-1.92E-09,0.065723297,1.78E-07
1701864341,-4.107747435,-3.923008573,0.065723297,0.034821846,0.001279625,0.998719318,-0.036681399,1.35E-06,-0.069704809,-3.068168831,1.70E-07,5.65E-05,-5.84E-08,0.683202169,1.33E-05,9.786195668,-0.073179727,-0.997305675,0.005110601,-4.107747463,-2.76E-08,-3.923008575,-1.93E-09,0.065723476,1.79E-07
1701864341,-4.107747463,-3.923008575,0.065723476,0.034821617,0.001279618,0.998719326,-0.0366814,1.35E-06,-0.069704352,-3.068168831,1.70E-07,5.68E-05,-5.87E-08,0.683197394,1.33E-05,9.786196003,-0.073179729,-0.997305675,0.005110569,-4.107747491,-2.78E-08,-3.923008577,-1.94E-09,0.065723656,1.80E-07
1701864341,-4.107747491,-3.923008577,0.065723656,0.034821388,0.00127961,0.998719334,-0.0366814,1.35E-06,-0.069703892,-3.068168832,1.70E-07,5.72E-05,-5.90E-08,0.683192452,1.34E-05,9.78619634,-0.07317973,-0.997305675,0.005110537,-4.107747519,-2.80E-08,-3.923008579,-1.95E-09,0.065723837,1.81E-07
1701864341,-4.107747519,-3.923008579,0.065723837,0.034821156,0.001279602,0.998719342,-0.0366814,1.35E-06,-0.069703429,-3.068168832,1.70E-07,5.75E-05,-5.93E-08,0.683187627,1.33E-05,9.78619668,-0.073179732,-0.997305675,0.005110504,-4.107747547,-2.81E-08,-3.923008581,-1.96E-09,0.06572402,1.82E-07
1701864341,-4.107747547,-3.923008581,0.06572402,0.034820924,0.001279594,0.99871935,-0.0366814,1.35E-06,-0.069702964,-3.068168833,1.70E-07,5.79E-05,-5.95E-08,0.683182634,1.34E-05,9.786197021,-0.073179734,-0.997305675,0.005110472,-4.107747575,-2.83E-08,-3.923008583,-1.97E-09,0.065724203,1.84E-07
1701864341,-4.107747575,-3.923008583,0.065724203,0.03482069,0.001279586,0.998719359,-0.0366814,1.36E-06,-0.069702495,-3.068168833,1.70E-07,5.82E-05,-5.98E-08,0.683177758,1.34E-05,9.786197365,-0.073179736,-0.997305675,0.005110439,-4.107747604,-2.84E-08,-3.923008585,-1.98E-09,0.065724388,1.85E-07
1701864341,-4.107747604,-3.923008585,0.065724388,0.034820455,0.001279578,0.998719367,-0.0366814,1.36E-06,-0.069702024,-3.068168834,1.70E-07,5.86E-05,-6.01E-08,0.683172749,1.34E-05,9.78619771,-0.073179738,-0.997305675,0.005110406,-4.107747632,-2.86E-08,-3.923008587,-2.00E-09,0.065724574,1.86E-07
1701864341,-4.107747632,-3.923008587,0.065724574,0.034820218,0.00127957,0.998719375,-0.0366814,1.36E-06,-0.06970155,-3.068168834,1.70E-07,5.89E-05,-6.04E-08,0.683167715,1.34E-05,9.786198057,-0.07317974,-0.997305675,0.005110372,-4.107747661,-2.87E-08,-3.923008589,-2.01E-09,0.065724761,1.87E-07
1701864341,-4.107747661,-3.923008589,0.065724761,0.03481998,0.001279562,0.998719383,-0.0366814,1.36E-06,-0.069701074,-3.068168834,1.70E-07,5.93E-05,-6.07E-08,0.683162761,1.34E-05,9.786198407,-0.073179742,-0.997305675,0.005110339,-4.10774769,-2.89E-08,-3.923008591,-2.02E-09,0.065724949,1.88E-07
1701864341,-4.10774769,-3.923008591,0.065724949,0.03481974,0.001279554,0.998719392,-0.0366814,1.36E-06,-0.069700594,-3.068168835,1.70E-07,5.96E-05,-6.09E-08,0.683157639,1.35E-05,9.786198758,-0.073179744,-0.997305675,0.005110305,-4.107747719,-2.90E-08,-3.923008593,-2.03E-09,0.065725138,1.89E-07
1701864341,-4.107747719,-3.923008593,0.065725138,0.034819499,0.001279546,0.9987194,-0.0366814,1.36E-06,-0.069700112,-3.068168835,1.70E-07,6.00E-05,-6.12E-08,0.683152633,1.34E-05,9.786199111,-0.073179746,-0.997305675,0.005110271,-4.107747748,-2.92E-08,-3.923008595,-2.04E-09,0.065725328,1.90E-07
1701864341,-4.107747748,-3.923008595,0.065725328,0.034819257,0.001279538,0.998719409,-0.0366814,1.36E-06,-0.069699626,-3.068168836,1.70E-07,6.03E-05,-6.15E-08,0.683147494,1.35E-05,9.786199466,-0.073179748,-0.997305675,0.005110237,-4.107747777,-2.93E-08,-3.923008597,-2.05E-09,0.065725519,1.91E-07
1701864341,-4.107747777,-3.923008597,0.065725519,0.034819013,0.00127953,0.998719417,-0.0366814,1.37E-06,-0.069699138,-3.068168836,1.70E-07,6.07E-05,-6.18E-08,0.683142329,1.35E-05,9.786199823,-0.07317975,-0.997305675,0.005110203,-4.107747807,-2.95E-08,-3.923008599,-2.06E-09,0.065725711,1.92E-07
1701864341,-4.107747807,-3.923008599,0.065725711,0.034818768,0.001279521,0.998719426,-0.036681401,1.37E-06,-0.069698648,-3.068168837,1.70E-07,6.10E-05,-6.20E-08,0.683137244,1.35E-05,9.786200182,-0.073179752,-0.997305675,0.005110168,-4.107747836,-2.96E-08,-3.923008601,-2.07E-09,0.065725905,1.93E-07
1701864341,-4.107747836,-3.923008601,0.065725905,0.034818522,0.001279513,0.998719434,-0.036681401,1.37E-06,-0.069698154,-3.068168837,1.70E-07,6.14E-05,-6.23E-08,0.68313199,1.35E-05,9.786200543,-0.073179754,-0.997305675,0.005110133,-4.107747866,-2.98E-08,-3.923008603,-2.09E-09,0.065726099,1.95E-07
1701864341,-4.107747866,-3.923008603,0.065726099,0.034818274,0.001279505,0.998719443,-0.036681401,1.37E-06,-0.069697658,-3.068168838,1.70E-07,6.17E-05,-6.26E-08,0.683126853,1.35E-05,9.786200906,-0.073179756,-0.997305675,0.005110098,-4.107747896,-3.00E-08,-3.923008605,-2.10E-09,0.065726295,1.96E-07
1701864341,-4.107747896,-3.923008605,0.065726295,0.034818025,0.001279496,0.998719452,-0.036681401,1.37E-06,-0.069697159,-3.068168838,1.70E-07,6.20E-05,-6.29E-08,0.683121581,1.35E-05,9.78620127,-0.073179758,-0.997305675,0.005110063,-4.107747926,-3.01E-08,-3.923008607,-2.11E-09,0.065726492,1.97E-07
1701864341,-4.107747926,-3.923008607,0.065726492,0.034817774,0.001279488,0.99871946,-0.036681401,1.37E-06,-0.069696657,-3.068168839,1.70E-07,6.24E-05,-6.32E-08,0.683116283,1.36E-05,9.786201637,-0.07317976,-0.997305675,0.005110028,-4.107747957,-3.03E-08,-3.923008609,-2.12E-09,0.065726689,1.98E-07
1701864341,-4.107747957,-3.923008609,0.065726689,0.034817522,0.001279479,0.998719469,-0.036681401,1.37E-06,-0.069696152,-3.06816884,1.70E-07,6.27E-05,-6.34E-08,0.683111065,1.35E-05,9.786202006,-0.073179762,-0.997305676,0.005109992,-4.107747987,-3.04E-08,-3.923008611,-2.13E-09,0.065726888,1.99E-07
1701864341,-4.107747987,-3.923008611,0.065726888,0.034817268,0.00127947,0.998719478,-0.036681401,1.38E-06,-0.069695644,-3.06816884,1.70E-07,6.31E-05,-6.37E-08,0.683105678,1.36E-05,9.786202376,-0.073179764,-0.997305676,0.005109956,-4.107748018,-3.06E-08,-3.923008613,-2.14E-09,0.065727088,2.00E-07
1701864341,-4.107748018,-3.923008613,0.065727088,0.034817014,0.001279462,0.998719487,-0.036681401,1.38E-06,-0.069695134,-3.068168841,1.70E-07,6.34E-05,-6.40E-08,0.683100406,1.36E-05,9.786202749,-0.073179766,-0.997305676,0.00510992,-4.107748048,-3.07E-08,-3.923008616,-2.15E-09,0.065727289,2.01E-07
1701864341,-4.107748048,-3.923008616,0.065727289,0.034816757,0.001279453,0.998719496,-0.036681401,1.38E-06,-0.069694621,-3.068168841,1.70E-07,6.38E-05,-6.43E-08,0.683094965,1.36E-05,9.786203123,-0.073179768,-0.997305676,0.005109884,-4.107748079,-3.09E-08,-3.923008618,-2.16E-09,0.065727492,2.02E-07
1701864341,-4.107748079,-3.923008618,0.065727492,0.0348165,0.001279444,0.998719505,-0.036681401,1.38E-06,-0.069694105,-3.068168842,1.70E-07,6.41E-05,-6.45E-08,0.683089639,1.36E-05,9.786203499,-0.073179771,-0.997305676,0.005109848,-4.10774811,-3.10E-08,-3.92300862,-2.17E-09,0.065727695,2.03E-07
1701864341,-4.10774811,-3.92300862,0.065727695,0.034816241,0.001279435,0.998719514,-0.036681401,1.38E-06,-0.069693586,-3.068168842,1.70E-07,6.45E-05,-6.48E-08,0.68308418,1.36E-05,9.786203877,-0.073179773,-0.997305676,0.005109811,-4.107748141,-3.12E-08,-3.923008622,-2.19E-09,0.065727899,2.04E-07
1701864341,-4.107748141,-3.923008622,0.065727899,0.03481598,0.001279427,0.998719523,-0.036681402,1.38E-06,-0.069693065,-3.068168843,1.70E-07,6.48E-05,-6.51E-08,0.683078694,1.37E-05,9.786204257,-0.073179775,-0.997305676,0.005109775,-4.107748173,-3.13E-08,-3.923008624,-2.20E-09,0.065728105,2.05E-07
1701864341,-4.107748173,-3.923008624,0.065728105,0.034815718,0.001279418,0.998719532,-0.036681402,1.38E-06,-0.06969254,-3.068168843,1.70E-07,6.52E-05,-6.54E-08,0.683073287,1.36E-05,9.786204639,-0.073179777,-0.997305676,0.005109737,-4.107748204,-3.15E-08,-3.923008627,-2.21E-09,0.065728311,2.07E-07
1701864341,-4.107748204,-3.923008627,0.065728311,0.034815455,0.001279409,0.998719541,-0.036681402,1.38E-06,-0.069692013,-3.068168844,1.69E-07,6.55E-05,-6.56E-08,0.683067711,1.37E-05,9.786205023,-0.073179779,-0.997305676,0.0051097,-4.107748236,-3.16E-08,-3.923008629,-2.22E-09,0.065728519,2.08E-07
1701864341,-4.107748236,-3.923008629,0.065728519,0.03481519,0.0012794,0.99871955,-0.036681402,1.39E-06,-0.069691483,-3.068168844,1.69E-07,6.59E-05,-6.59E-08,0.683062251,1.37E-05,9.786205409,-0.073179781,-0.997305676,0.005109663,-4.107748268,-3.18E-08,-3.923008631,-2.23E-09,0.065728728,2.09E-07
1701864341,-4.107748268,-3.923008631,0.065728728,0.034814924,0.001279391,0.99871956,-0.036681402,1.39E-06,-0.069690951,-3.068168845,1.69E-07,6.62E-05,-6.62E-08,0.683056656,1.37E-05,9.786205797,-0.073179783,-0.997305676,0.005109625,-4.1077483,-3.19E-08,-3.923008633,-2.24E-09,0.065728938,2.10E-07
1701864341,-4.1077483,-3.923008633,0.065728938,0.034814657,0.001279381,0.998719569,-0.036681402,1.39E-06,-0.069690415,-3.068168845,1.69E-07,6.66E-05,-6.65E-08,0.683051034,1.37E-05,9.786206186,-0.073179786,-0.997305676,0.005109587,-4.107748332,-3.21E-08,-3.923008636,-2.25E-09,0.065729148,2.11E-07
1701864341,-4.107748332,-3.923008636,0.065729148,0.034814388,0.001279372,0.998719578,-0.036681402,1.39E-06,-0.069689877,-3.068168846,1.69E-07,6.69E-05,-6.68E-08,0.683045492,1.37E-05,9.786206578,-0.073179788,-0.997305676,0.005109549,-4.107748364,-3.22E-08,-3.923008638,-2.26E-09,0.065729361,2.12E-07
1701864341,-4.107748364,-3.923008638,0.065729361,0.034814118,0.001279363,0.998719588,-0.036681402,1.39E-06,-0.069689336,-3.068168846,1.69E-07,6.73E-05,-6.70E-08,0.683039781,1.38E-05,9.786206971,-0.07317979,-0.997305676,0.005109511,-4.107748396,-3.24E-08,-3.92300864,-2.27E-09,0.065729574,2.13E-07
1701864341,-4.107748396,-3.92300864,0.065729574,0.034813846,0.001279354,0.998719597,-0.036681402,1.39E-06,-0.069688792,-3.068168847,1.69E-07,6.76E-05,-6.73E-08,0.683034185,1.37E-05,9.786207367,-0.073179792,-0.997305676,0.005109473,-4.107748429,-3.25E-08,-3.923008642,-2.28E-09,0.065729788,2.14E-07
1701864341,-4.107748429,-3.923008642,0.065729788,0.034813573,0.001279344,0.998719607,-0.036681402,1.39E-06,-0.069688245,-3.068168847,1.69E-07,6.80E-05,-6.76E-08,0.683028419,1.38E-05,9.786207764,-0.073179795,-0.997305676,0.005109434,-4.107748461,-3.27E-08,-3.923008645,-2.30E-09,0.065730003,2.15E-07
1701864341,-4.107748461,-3.923008645,0.065730003,0.034813299,0.001279335,0.998719616,-0.036681403,1.40E-06,-0.069687696,-3.068168848,1.69E-07,6.83E-05,-6.79E-08,0.683022768,1.38E-05,9.786208163,-0.073179797,-0.997305676,0.005109395,-4.107748494,-3.28E-08,-3.923008647,-2.31E-09,0.06573022,2.16E-07
1701864341,-4.107748494,-3.923008647,0.06573022,0.034813023,0.001279326,0.998719626,-0.036681403,1.40E-06,-0.069687143,-3.068168849,1.69E-07,6.87E-05,-6.81E-08,0.683016983,1.38E-05,9.786208564,-0.073179799,-0.997305676,0.005109356,-4.107748527,-3.30E-08,-3.923008649,-2.32E-09,0.065730437,2.18E-07
1701864341,-4.107748527,-3.923008649,0.065730437,0.034812746,0.001279316,0.998719636,-0.036681403,1.40E-06,-0.069686588,-3.068168849,1.69E-07,6.90E-05,-6.84E-08,0.683011171,1.38E-05,9.786208967,-0.073179801,-0.997305676,0.005109317,-4.10774856,-3.31E-08,-3.923008652,-2.33E-09,0.065730656,2.19E-07
1701864341,-4.10774856,-3.923008652,0.065730656,0.034812467,0.001279307,0.998719645,-0.036681403,1.40E-06,-0.069686031,-3.06816885,1.69E-07,6.93E-05,-6.87E-08,0.683005439,1.38E-05,9.786209372,-0.073179804,-0.997305676,0.005109277,-4.107748594,-3.33E-08,-3.923008654,-2.34E-09,0.065730876,2.20E-07
1701864341,-4.107748594,-3.923008654,0.065730876,0.034812187,0.001279297,0.998719655,-0.036681403,1.40E-06,-0.06968547,-3.06816885,1.69E-07,6.97E-05,-6.90E-08,0.682999537,1.39E-05,9.786209779,-0.073179806,-0.997305676,0.005109238,-4.107748627,-3.34E-08,-3.923008656,-2.35E-09,0.065731096,2.21E-07
1701864342,-4.107748627,-3.923008656,0.065731096,0.034811906,0.001279287,0.998719665,-0.036681403,1.40E-06,-0.069684906,-3.068168851,1.69E-07,7.00E-05,-6.93E-08,0.68299375,1.38E-05,9.786210188,-0.073179808,-0.997305676,0.005109198,-4.107748661,-3.36E-08,-3.923008659,-2.36E-09,0.065731318,2.22E-07
1701864342,-4.107748661,-3.923008659,0.065731318,0.034811623,0.001279278,0.998719675,-0.036681403,1.40E-06,-0.06968434,-3.068168851,1.69E-07,7.04E-05,-6.95E-08,0.682987829,1.39E-05,9.786210599,-0.073179811,-0.997305676,0.005109158,-4.107748694,-3.37E-08,-3.923008661,-2.37E-09,0.065731541,2.23E-07
1701864342,-4.107748694,-3.923008661,0.065731541,0.034811339,0.001279268,0.998719685,-0.036681403,1.41E-06,-0.069683771,-3.068168852,1.69E-07,7.07E-05,-6.98E-08,0.68298188,1.39E-05,9.786211011,-0.073179813,-0.997305676,0.005109117,-4.107748728,-3.39E-08,-3.923008663,-2.38E-09,0.065731765,2.24E-07
1701864342,-4.107748728,-3.923008663,0.065731765,0.034811053,0.001279258,0.998719695,-0.036681403,1.41E-06,-0.069683199,-3.068168852,1.69E-07,7.11E-05,-7.01E-08,0.682976012,1.39E-05,9.786211426,-0.073179815,-0.997305676,0.005109077,-4.107748762,-3.40E-08,-3.923008666,-2.39E-09,0.065731991,2.25E-07
1701864342,-4.107748762,-3.923008666,0.065731991,0.034810766,0.001279248,0.998719705,-0.036681404,1.41E-06,-0.069682625,-3.068168853,1.69E-07,7.14E-05,-7.04E-08,0.682969973,1.39E-05,9.786211842,-0.073179818,-0.997305676,0.005109036,-4.107748796,-3.42E-08,-3.923008668,-2.40E-09,0.065732217,2.26E-07
1701864342,-4.107748796,-3.923008668,0.065732217,0.034810478,0.001279238,0.998719715,-0.036681404,1.41E-06,-0.069682047,-3.068168854,1.69E-07,7.18E-05,-7.06E-08,0.68296405,1.39E-05,9.78621226,-0.07317982,-0.997305676,0.005108995,-4.107748831,-3.43E-08,-3.923008671,-2.42E-09,0.065732444,2.27E-07
1701864342,-4.107748831,-3.923008671,0.065732444,0.034810188,0.001279228,0.998719725,-0.036681404,1.41E-06,-0.069681467,-3.068168854,1.69E-07,7.21E-05,-7.09E-08,0.682957993,1.39E-05,9.78621268,-0.073179823,-0.997305676,0.005108954,-4.107748865,-3.45E-08,-3.923008673,-2.43E-09,0.065732673,2.28E-07
1701864342,-4.107748865,-3.923008673,0.065732673,0.034809897,0.001279218,0.998719735,-0.036681404,1.41E-06,-0.069680884,-3.068168855,1.69E-07,7.25E-05,-7.12E-08,0.682951908,1.40E-05,9.786213103,-0.073179825,-0.997305676,0.005108913,-4.1077489,-3.46E-08,-3.923008675,-2.44E-09,0.065732902,2.30E-07
1701864342,-4.1077489,-3.923008675,0.065732902,0.034809604,0.001279208,0.998719745,-0.036681404,1.41E-06,-0.069680298,-3.068168855,1.69E-07,7.28E-05,-7.15E-08,0.682945903,1.39E-05,9.786213527,-0.073179827,-0.997305676,0.005108871,-4.107748935,-3.48E-08,-3.923008678,-2.45E-09,0.065733133,2.31E-07
1701864342,-4.107748935,-3.923008678,0.065733133,0.03480931,0.001279198,0.998719756,-0.036681404,1.42E-06,-0.069679709,-3.068168856,1.69E-07,7.32E-05,-7.18E-08,0.682939728,1.40E-05,9.786213952,-0.07317983,-0.997305676,0.00510883,-4.10774897,-3.49E-08,-3.92300868,-2.46E-09,0.065733365,2.32E-07
1701864342,-4.10774897,-3.92300868,0.065733365,0.034809015,0.001279188,0.998719766,-0.036681404,1.42E-06,-0.069679118,-3.068168856,1.69E-07,7.35E-05,-7.20E-08,0.682933668,1.40E-05,9.78621438,-0.073179832,-0.997305677,0.005108788,-4.107749005,-3.51E-08,-3.923008683,-2.47E-09,0.065733598,2.33E-07
1701864342,-4.107749005,-3.923008683,0.065733598,0.034808718,0.001279178,0.998719776,-0.036681404,1.42E-06,-0.069678524,-3.068168857,1.69E-07,7.39E-05,-7.23E-08,0.682927438,1.40E-05,9.78621481,-0.073179835,-0.997305677,0.005108746,-4.10774904,-3.52E-08,-3.923008685,-2.48E-09,0.065733832,2.34E-07
1701864342,-4.10774904,-3.923008685,0.065733832,0.03480842,0.001279168,0.998719787,-0.036681404,1.42E-06,-0.069677927,-3.068168858,1.69E-07,7.42E-05,-7.26E-08,0.682921324,1.40E-05,9.786215242,-0.073179837,-0.997305677,0.005108703,-4.107749075,-3.54E-08,-3.923008688,-2.49E-09,0.065734067,2.35E-07
1701864342,-4.107749075,-3.923008688,0.065734067,0.034808121,0.001279157,0.998719797,-0.036681405,1.42E-06,-0.069677327,-3.068168858,1.69E-07,7.46E-05,-7.29E-08,0.682915075,1.40E-05,9.786215675,-0.07317984,-0.997305677,0.005108661,-4.107749111,-3.55E-08,-3.92300869,-2.50E-09,0.065734303,2.36E-07
1701864342,-4.107749111,-3.92300869,0.065734303,0.03480782,0.001279147,0.998719808,-0.036681405,1.42E-06,-0.069676724,-3.068168859,1.69E-07,7.49E-05,-7.31E-08,0.682908799,1.41E-05,9.786216111,-0.073179842,-0.997305677,0.005108618,-4.107749146,-3.56E-08,-3.923008693,-2.51E-09,0.06573454,2.37E-07
1701864342,-4.107749146,-3.923008693,0.06573454,0.034807517,0.001279136,0.998719818,-0.036681405,1.42E-06,-0.069676119,-3.068168859,1.69E-07,7.53E-05,-7.34E-08,0.682902603,1.40E-05,9.786216548,-0.073179845,-0.997305677,0.005108575,-4.107749182,-3.58E-08,-3.923008695,-2.52E-09,0.065734778,2.38E-07
1701864342,-4.107749182,-3.923008695,0.065734778,0.034807214,0.001279126,0.998719829,-0.036681405,1.43E-06,-0.069675511,-3.06816886,1.69E-07,7.56E-05,-7.37E-08,0.682896236,1.41E-05,9.786216987,-0.073179847,-0.997305677,0.005108532,-4.107749218,-3.59E-08,-3.923008698,-2.53E-09,0.065735018,2.39E-07
1701864342,-4.107749218,-3.923008698,0.065735018,0.034806908,0.001279115,0.998719839,-0.036681405,1.43E-06,-0.0696749,-3.068168861,1.69E-07,7.60E-05,-7.40E-08,0.682889985,1.41E-05,9.786217428,-0.07317985,-0.997305677,0.005108489,-4.107749254,-3.61E-08,-3.9230087,-2.54E-09,0.065735258,2.41E-07
1701864342,-4.107749254,-3.9230087,0.065735258,0.034806602,0.001279105,0.99871985,-0.036681405,1.43E-06,-0.069674286,-3.068168861,1.69E-07,7.63E-05,-7.42E-08,0.6828836,1.41E-05,9.786217871,-0.073179852,-0.997305677,0.005108445,-4.10774929,-3.62E-08,-3.923008703,-2.55E-09,0.0657355,2.42E-07
1701864342,-4.10774929,-3.923008703,0.0657355,0.034806294,0.001279094,0.998719861,-0.036681405,1.43E-06,-0.069673669,-3.068168862,1.69E-07,7.66E-05,-7.45E-08,0.682877187,1.41E-05,9.786218316,-0.073179855,-0.997305677,0.005108401,-4.107749327,-3.64E-08,-3.923008706,-2.57E-09,0.065735743,2.43E-07
1701864342,-4.107749327,-3.923008706,0.065735743,0.034805985,0.001279084,0.998719872,-0.036681405,1.43E-06,-0.06967305,-3.068168862,1.69E-07,7.70E-05,-7.48E-08,0.682870854,1.41E-05,9.786218763,-0.073179857,-0.997305677,0.005108357,-4.107749363,-3.65E-08,-3.923008708,-2.58E-09,0.065735987,2.44E-07
1701864342,-4.107749363,-3.923008708,0.065735987,0.034805674,0.001279073,0.998719882,-0.036681405,1.43E-06,-0.069672428,-3.068168863,1.69E-07,7.73E-05,-7.51E-08,0.682864351,1.42E-05,9.786219212,-0.07317986,-0.997305677,0.005108313,-4.1077494,-3.67E-08,-3.923008711,-2.59E-09,0.065736232,2.45E-07
1701864342,-4.1077494,-3.923008711,0.065736232,0.034805362,0.001279062,0.998719893,-0.036681406,1.43E-06,-0.069671803,-3.068168864,1.69E-07,7.77E-05,-7.54E-08,0.682857963,1.41E-05,9.786219663,-0.073179863,-0.997305677,0.005108269,-4.107749437,-3.68E-08,-3.923008713,-2.60E-09,0.065736478,2.46E-07
1701864342,-4.107749437,-3.923008713,0.065736478,0.034805048,0.001279051,0.998719904,-0.036681406,1.44E-06,-0.069671175,-3.068168864,1.69E-07,7.80E-05,-7.56E-08,0.682851405,1.42E-05,9.786220115,-0.073179865,-0.997305677,0.005108224,-4.107749474,-3.70E-08,-3.923008716,-2.61E-09,0.065736725,2.47E-07
1701864342,-4.107749474,-3.923008716,0.065736725,0.034804733,0.00127904,0.998719915,-0.036681406,1.44E-06,-0.069670544,-3.068168865,1.69E-07,7.84E-05,-7.59E-08,0.682844963,1.42E-05,9.78622057,-0.073179868,-0.997305677,0.005108179,-4.107749511,-3.71E-08,-3.923008719,-2.62E-09,0.065736973,2.48E-07
1701864342,-4.107749511,-3.923008719,0.065736973,0.034804417,0.001279029,0.998719926,-0.036681406,1.44E-06,-0.069669911,-3.068168865,1.69E-07,7.87E-05,-7.62E-08,0.682838386,1.42E-05,9.786221026,-0.07317987,-0.997305677,0.005108134,-4.107749548,-3.72E-08,-3.923008721,-2.63E-09,0.065737222,2.49E-07
1701864342,-4.107749548,-3.923008721,0.065737222,0.034804099,0.001279019,0.998719937,-0.036681406,1.44E-06,-0.069669275,-3.068168866,1.69E-07,7.91E-05,-7.65E-08,0.682831782,1.42E-05,9.786221485,-0.073179873,-0.997305677,0.005108089,-4.107749585,-3.74E-08,-3.923008724,-2.64E-09,0.065737473,2.50E-07
1701864342,-4.107749585,-3.923008724,0.065737473,0.03480378,0.001279007,0.998719948,-0.036681406,1.44E-06,-0.069668636,-3.068168867,1.69E-07,7.94E-05,-7.67E-08,0.682825257,1.42E-05,9.786221945,-0.073179876,-0.997305677,0.005108044,-4.107749623,-3.75E-08,-3.923008726,-2.65E-09,0.065737724,2.52E-07
1701864342,-4.107749623,-3.923008726,0.065737724,0.03480346,0.001278996,0.99871996,-0.036681406,1.44E-06,-0.069667994,-3.068168867,1.69E-07,7.98E-05,-7.70E-08,0.682818563,1.43E-05,9.786222407,-0.073179878,-0.997305677,0.005107998,-4.107749661,-3.77E-08,-3.923008729,-2.66E-09,0.065737977,2.53E-07
1701864342,-4.107749661,-3.923008729,0.065737977,0.034803138,0.001278985,0.998719971,-0.036681406,1.44E-06,-0.06966735,-3.068168868,1.69E-07,8.01E-05,-7.73E-08,0.682811984,1.42E-05,9.786222871,-0.073179881,-0.997305677,0.005107952,-4.107749698,-3.78E-08,-3.923008732,-2.67E-09,0.06573823,2.54E-07
1701864342,-4.107749698,-3.923008732,0.06573823,0.034802815,0.001278974,0.998719982,-0.036681407,1.45E-06,-0.069666702,-3.068168869,1.69E-07,8.05E-05,-7.76E-08,0.68280527,1.43E-05,9.786223337,-0.073179884,-0.997305677,0.005107906,-4.107749736,-3.80E-08,-3.923008734,-2.68E-09,0.065738485,2.55E-07
1701864342,-4.107749736,-3.923008734,0.065738485,0.03480249,0.001278963,0.998719993,-0.036681407,1.45E-06,-0.069666052,-3.068168869,1.69E-07,8.08E-05,-7.79E-08,0.682798529,1.43E-05,9.786223805,-0.073179886,-0.997305677,0.00510786,-4.107749775,-3.81E-08,-3.923008737,-2.69E-09,0.065738741,2.56E-07
1701864342,-4.107749775,-3.923008737,0.065738741,0.034802164,0.001278952,0.998720005,-0.036681407,1.45E-06,-0.069665399,-3.06816887,1.69E-07,8.12E-05,-7.81E-08,0.682791868,1.43E-05,9.786224274,-0.073179889,-0.997305677,0.005107814,-4.107749813,-3.83E-08,-3.92300874,-2.70E-09,0.065738998,2.57E-07
1701864342,-4.107749813,-3.92300874,0.065738998,0.034801836,0.00127894,0.998720016,-0.036681407,1.45E-06,-0.069664744,-3.06816887,1.69E-07,8.15E-05,-7.84E-08,0.682785037,1.43E-05,9.786224746,-0.073179892,-0.997305677,0.005107767,-4.107749851,-3.84E-08,-3.923008743,-2.71E-09,0.065739256,2.58E-07
1701864342,-4.107749851,-3.923008743,0.065739256,0.034801508,0.001278929,0.998720028,-0.036681407,1.45E-06,-0.069664085,-3.068168871,1.69E-07,8.19E-05,-7.87E-08,0.682778321,1.43E-05,9.78622522,-0.073179895,-0.997305677,0.00510772,-4.10774989,-3.85E-08,-3.923008745,-2.72E-09,0.065739515,2.59E-07
1701864342,-4.10774989,-3.923008745,0.065739515,0.034801177,0.001278917,0.998720039,-0.036681407,1.45E-06,-0.069663424,-3.068168872,1.69E-07,8.22E-05,-7.90E-08,0.68277147,1.43E-05,9.786225695,-0.073179897,-0.997305677,0.005107673,-4.107749928,-3.87E-08,-3.923008748,-2.73E-09,0.065739776,2.60E-07
1701864342,-4.107749928,-3.923008748,0.065739776,0.034800846,0.001278906,0.998720051,-0.036681407,1.45E-06,-0.06966276,-3.068168872,1.69E-07,8.26E-05,-7.92E-08,0.682764592,1.44E-05,9.786226172,-0.0731799,-0.997305678,0.005107626,-4.107749967,-3.88E-08,-3.923008751,-2.74E-09,0.065740037,2.61E-07
1701864342,-4.107749967,-3.923008751,0.065740037,0.034800513,0.001278894,0.998720062,-0.036681407,1.45E-06,-0.069662093,-3.068168873,1.69E-07,8.29E-05,-7.95E-08,0.682757794,1.43E-05,9.786226652,-0.073179903,-0.997305678,0.005107578,-4.107750006,-3.90E-08,-3.923008754,-2.76E-09,0.065740299,2.62E-07
1701864342,-4.107750006,-3.923008754,0.065740299,0.034800178,0.001278883,0.998720074,-0.036681408,1.46E-06,-0.069661423,-3.068168874,1.68E-07,8.33E-05,-7.98E-08,0.682750826,1.44E-05,9.786227133,-0.073179906,-0.997305678,0.005107531,-4.107750045,-3.91E-08,-3.923008756,-2.77E-09,0.065740563,2.64E-07
1701864342,-4.107750045,-3.923008756,0.065740563,0.034799842,0.001278871,0.998720086,-0.036681408,1.46E-06,-0.06966075,-3.068168874,1.68E-07,8.36E-05,-8.01E-08,0.682743973,1.44E-05,9.786227616,-0.073179908,-0.997305678,0.005107483,-4.107750085,-3.93E-08,-3.923008759,-2.78E-09,0.065740828,2.65E-07
1701864342,-4.107750085,-3.923008759,0.065740828,0.034799505,0.001278859,0.998720098,-0.036681408,1.46E-06,-0.069660075,-3.068168875,1.68E-07,8.39E-05,-8.04E-08,0.682736951,1.44E-05,9.786228101,-0.073179911,-0.997305678,0.005107435,-4.107750124,-3.94E-08,-3.923008762,-2.79E-09,0.065741093,2.66E-07
1701864342,-4.107750124,-3.923008762,0.065741093,0.034799166,0.001278848,0.998720109,-0.036681408,1.46E-06,-0.069659397,-3.068168876,1.68E-07,8.43E-05,-8.06E-08,0.682730043,1.44E-05,9.786228588,-0.073179914,-0.997305678,0.005107387,-4.107750164,-3.95E-08,-3.923008765,-2.80E-09,0.06574136,2.67E-07
1701864342,-4.107750164,-3.923008765,0.06574136,0.034798826,0.001278836,0.998720121,-0.036681408,1.46E-06,-0.069658716,-3.068168876,1.68E-07,8.46E-05,-8.09E-08,0.682723001,1.44E-05,9.786229076,-0.073179917,-0.997305678,0.005107338,-4.107750203,-3.97E-08,-3.923008767,-2.81E-09,0.065741628,2.68E-07
1701864342,-4.107750203,-3.923008767,0.065741628,0.034798485,0.001278824,0.998720133,-0.036681408,1.46E-06,-0.069658032,-3.068168877,1.68E-07,8.50E-05,-8.12E-08,0.682715932,1.45E-05,9.786229567,-0.07317992,-0.997305678,0.005107289,-4.107750243,-3.98E-08,-3.92300877,-2.82E-09,0.065741897,2.69E-07
1701864342,-4.107750243,-3.92300877,0.065741897,0.034798142,0.001278812,0.998720145,-0.036681408,1.46E-06,-0.069657346,-3.068168877,1.68E-07,8.53E-05,-8.15E-08,0.682708942,1.44E-05,9.78623006,-0.073179923,-0.997305678,0.005107241,-4.107750283,-4.00E-08,-3.923008773,-2.83E-09,0.065742167,2.70E-07
1701864342,-4.107750283,-3.923008773,0.065742167,0.034797798,0.0012788,0.998720157,-0.036681409,1.47E-06,-0.069656657,-3.068168878,1.68E-07,8.57E-05,-8.17E-08,0.682701783,1.45E-05,9.786230554,-0.073179925,-0.997305678,0.005107191,-4.107750323,-4.01E-08,-3.923008776,-2.84E-09,0.065742438,2.71E-07
1701864342,-4.107750323,-3.923008776,0.065742438,0.034797452,0.001278788,0.998720169,-0.036681409,1.47E-06,-0.069655964,-3.068168879,1.68E-07,8.60E-05,-8.20E-08,0.682694738,1.45E-05,9.786231051,-0.073179928,-0.997305678,0.005107142,-4.107750363,-4.03E-08,-3.923008779,-2.85E-09,0.065742711,2.72E-07
1701864342,-4.107750363,-3.923008779,0.065742711,0.034797105,0.001278776,0.998720181,-0.036681409,1.47E-06,-0.06965527,-3.068168879,1.68E-07,8.64E-05,-8.23E-08,0.68268756,1.45E-05,9.786231549,-0.073179931,-0.997305678,0.005107093,-4.107750404,-4.04E-08,-3.923008782,-2.86E-09,0.065742984,2.73E-07
1701864342,-4.107750404,-3.923008782,0.065742984,0.034796757,0.001278764,0.998720193,-0.036681409,1.47E-06,-0.069654572,-3.06816888,1.68E-07,8.67E-05,-8.26E-08,0.682680354,1.45E-05,9.786232049,-0.073179934,-0.997305678,0.005107043,-4.107750444,-4.05E-08,-3.923008785,-2.87E-09,0.065743259,2.75E-07
1701864342,-4.107750444,-3.923008785,0.065743259,0.034796407,0.001278752,0.998720206,-0.036681409,1.47E-06,-0.069653871,-3.068168881,1.68E-07,8.71E-05,-8.28E-08,0.682673227,1.45E-05,9.786232551,-0.073179937,-0.997305678,0.005106993,-4.107750485,-4.07E-08,-3.923008787,-2.88E-09,0.065743534,2.76E-07
1701864342,-4.107750485,-3.923008787,0.065743534,0.034796056,0.00127874,0.998720218,-0.036681409,1.47E-06,-0.069653168,-3.068168881,1.68E-07,8.74E-05,-8.31E-08,0.682665931,1.46E-05,9.786233055,-0.07317994,-0.997305678,0.005106943,-4.107750526,-4.08E-08,-3.92300879,-2.89E-09,0.065743811,2.77E-07
1701864342,-4.107750526,-3.92300879,0.065743811,0.034795703,0.001278727,0.99872023,-0.036681409,1.47E-06,-0.069652462,-3.068168882,1.68E-07,8.78E-05,-8.34E-08,0.68265875,1.45E-05,9.786233561,-0.073179943,-0.997305678,0.005106893,-4.107750567,-4.10E-08,-3.923008793,-2.90E-09,0.065744089,2.78E-07
1701864342,-4.107750567,-3.923008793,0.065744089,0.034795349,0.001278715,0.998720242,-0.03668141,1.48E-06,-0.069651753,-3.068168883,1.68E-07,8.81E-05,-8.37E-08,0.682651398,1.46E-05,9.786234069,-0.073179946,-0.997305678,0.005106842,-4.107750608,-4.11E-08,-3.923008796,-2.91E-09,0.065744368,2.79E-07
1701864342,-4.107750608,-3.923008796,0.065744368,0.034794994,0.001278703,0.998720255,-0.03668141,1.48E-06,-0.069651042,-3.068168883,1.68E-07,8.85E-05,-8.40E-08,0.682644162,1.45E-05,9.786234579,-0.073179949,-0.997305678,0.005106791,-4.107750649,-4.12E-08,-3.923008799,-2.92E-09,0.065744648,2.80E-07
1701864342,-4.107750649,-3.923008799,0.065744648,0.034794637,0.00127869,0.998720267,-0.03668141,1.48E-06,-0.069650327,-3.068168884,1.68E-07,8.88E-05,-8.42E-08,0.682636792,1.46E-05,9.78623509,-0.073179952,-0.997305678,0.00510674,-4.107750691,-4.14E-08,-3.923008802,-2.93E-09,0.065744929,2.81E-07
1701864342,-4.107750691,-3.923008802,0.065744929,0.034794279,0.001278678,0.99872028,-0.03668141,1.48E-06,-0.06964961,-3.068168885,1.68E-07,8.92E-05,-8.45E-08,0.682629395,1.46E-05,9.786235604,-0.073179955,-0.997305678,0.005106689,-4.107750732,-4.15E-08,-3.923008805,-2.94E-09,0.065745211,2.82E-07
1701864342,-4.107750732,-3.923008805,0.065745211,0.034793919,0.001278665,0.998720292,-0.03668141,1.48E-06,-0.06964889,-3.068168886,1.68E-07,8.95E-05,-8.48E-08,0.682622077,1.46E-05,9.786236119,-0.073179958,-0.997305678,0.005106638,-4.107750774,-4.17E-08,-3.923008808,-2.95E-09,0.065745494,2.83E-07
1701864342,-4.107750774,-3.923008808,0.065745494,0.034793558,0.001278653,0.998720305,-0.03668141,1.48E-06,-0.069648167,-3.068168886,1.68E-07,8.99E-05,-8.51E-08,0.682614589,1.47E-05,9.786236637,-0.073179961,-0.997305678,0.005106586,-4.107750816,-4.18E-08,-3.923008811,-2.96E-09,0.065745779,2.84E-07
1701864342,-4.107750816,-3.923008811,0.065745779,0.034793196,0.00127864,0.998720318,-0.03668141,1.48E-06,-0.069647441,-3.068168887,1.68E-07,9.02E-05,-8.53E-08,0.682607216,1.46E-05,9.786237156,-0.073179964,-0.997305678,0.005106535,-4.107750857,-4.19E-08,-3.923008814,-2.97E-09,0.065746064,2.85E-07
1701864342,-4.107750857,-3.923008814,0.065746064,0.034792832,0.001278627,0.99872033,-0.036681411,1.49E-06,-0.069646713,-3.068168888,1.68E-07,9.06E-05,-8.56E-08,0.682599709,1.47E-05,9.786237677,-0.073179967,-0.997305678,0.005106483,-4.1077509,-4.21E-08,-3.923008817,-2.98E-09,0.065746351,2.87E-07
1701864342,-4.1077509,-3.923008817,0.065746351,0.034792467,0.001278615,0.998720343,-0.036681411,1.49E-06,-0.069645982,-3.068168888,1.68E-07,9.09E-05,-8.59E-08,0.682592174,1.47E-05,9.7862382,-0.07317997,-0.997305679,0.005106431,-4.107750942,-4.22E-08,-3.92300882,-2.99E-09,0.065746638,2.88E-07
1701864342,-4.107750942,-3.92300882,0.065746638,0.0347921,0.001278602,0.998720356,-0.036681411,1.49E-06,-0.069645248,-3.068168889,1.68E-07,9.12E-05,-8.62E-08,0.68258472,1.47E-05,9.786238725,-0.073179973,-0.997305679,0.005106378,-4.107750984,-4.24E-08,-3.923008823,-3.00E-09,0.065746927,2.89E-07
1701864342,-4.107750984,-3.923008823,0.065746927,0.034791732,0.001278589,0.998720369,-0.036681411,1.49E-06,-0.069644511,-3.06816889,1.68E-07,9.16E-05,-8.65E-08,0.682577095,1.47E-05,9.786239252,-0.073179976,-0.997305679,0.005106326,-4.107751027,-4.25E-08,-3.923008826,-3.01E-09,0.065747217,2.90E-07
1701864342,-4.107751027,-3.923008826,0.065747217,0.034791363,0.001278576,0.998720381,-0.036681411,1.49E-06,-0.069643771,-3.06816889,1.68E-07,9.19E-05,-8.67E-08,0.682569585,1.47E-05,9.786239781,-0.073179979,-0.997305679,0.005106273,-4.107751069,-4.26E-08,-3.923008829,-3.02E-09,0.065747508,2.91E-07
1701864342,-4.107751069,-3.923008829,0.065747508,0.034790992,0.001278563,0.998720394,-0.036681411,1.49E-06,-0.069643029,-3.068168891,1.68E-07,9.23E-05,-8.70E-08,0.682561941,1.47E-05,9.786240311,-0.073179982,-0.997305679,0.00510622,-4.107751112,-4.28E-08,-3.923008832,-3.03E-09,0.0657478,2.92E-07
1701864342,-4.107751112,-3.923008832,0.0657478,0.03479062,0.00127855,0.998720407,-0.036681411,1.49E-06,-0.069642284,-3.068168892,1.68E-07,9.26E-05,-8.73E-08,0.68255427,1.48E-05,9.786240844,-0.073179985,-0.997305679,0.005106167,-4.107751155,-4.29E-08,-3.923008835,-3.04E-09,0.065748093,2.93E-07
1701864342,-4.107751155,-3.923008835,0.065748093,0.034790246,0.001278537,0.99872042,-0.036681412,1.50E-06,-0.069641536,-3.068168892,1.68E-07,9.30E-05,-8.76E-08,0.682546679,1.47E-05,9.786241378,-0.073179988,-0.997305679,0.005106113,-4.107751198,-4.30E-08,-3.923008838,-3.05E-09,0.065748387,2.94E-07
1701864342,-4.107751198,-3.923008838,0.065748387,0.034789872,0.001278524,0.998720433,-0.036681412,1.50E-06,-0.069640785,-3.068168893,1.68E-07,9.33E-05,-8.78E-08,0.682538917,1.48E-05,9.786241915,-0.073179991,-0.997305679,0.00510606,-4.107751241,-4.32E-08,-3.923008841,-3.06E-09,0.065748683,2.95E-07
1701864342,-4.107751241,-3.923008841,0.065748683,0.034789495,0.001278511,0.998720447,-0.036681412,1.50E-06,-0.069640031,-3.068168894,1.68E-07,9.37E-05,-8.81E-08,0.682531271,1.48E-05,9.786242453,-0.073179995,-0.997305679,0.005106006,-4.107751284,-4.33E-08,-3.923008844,-3.07E-09,0.065748979,2.96E-07
1701864342,-4.107751284,-3.923008844,0.065748979,0.034789117,0.001278498,0.99872046,-0.036681412,1.50E-06,-0.069639275,-3.068168895,1.68E-07,9.40E-05,-8.84E-08,0.682523454,1.48E-05,9.786242993,-0.073179998,-0.997305679,0.005105952,-4.107751328,-4.35E-08,-3.923008847,-3.08E-09,0.065749277,2.98E-07
1701864342,-4.107751328,-3.923008847,0.065749277,0.034788738,0.001278485,0.998720473,-0.036681412,1.50E-06,-0.069638516,-3.068168895,1.68E-07,9.44E-05,-8.87E-08,0.682515753,1.48E-05,9.786243535,-0.073180001,-0.997305679,0.005105898,-4.107751371,-4.34E-08,-3.92300885,-3.14E-09,0.065749575,2.99E-07
1701864342,-4.107751371,-3.92300885,0.065749575,0.034788358,0.001278471,0.998720486,-0.036681413,1.50E-06,-0.069637754,-3.068168895,1.79E-07,9.47E-05,6.99E-08,0.682505178,1.67E-05,9.786244265,-0.073180005,-0.997305679,0.005105843,-4.107751415,-4.32E-08,-3.923008853,-3.21E-09,0.065749875,3.00E-07
1701864342,-4.107751415,-3.923008853,0.065749875,0.034787976,0.001278458,0.998720499,-0.036681415,1.50E-06,-0.069636989,-3.068168893,1.94E-07,9.51E-05,2.80E-07,0.682494077,1.76E-05,9.786245039,-0.073180012,-0.997305679,0.005105789,-4.107751183,2.32E-07,-3.923008857,-3.25E-09,0.065750175,3.00E-07
1701864342,-4.107751183,-3.923008857,0.065750175,0.034787587,0.001278445,0.998720513,-0.036681417,1.51E-06,-0.069636209,-3.06816889,2.87E-07,9.69E-05,3.56E-07,0.678236221,0.00032955,9.786525846,-0.073180018,-0.997305679,0.005105734,-4.107746193,4.99E-06,-3.92300886,-3.45E-09,0.06575047,2.95E-07
1701864342,-4.107746193,-3.92300886,0.06575047,0.034787099,0.001278434,0.99872053,-0.036681418,1.52E-06,-0.069635233,-3.068168888,1.70E-06,0.000121381,2.60E-07,0.608830753,0.005446013,9.791117913,-0.073180025,-0.997305678,0.005105676,-4.107732248,1.39E-05,-3.923008864,-3.63E-09,0.06575076,2.90E-07
1701864342,-4.107732248,-3.923008864,0.06575076,0.034786524,0.001278424,0.99872055,-0.03668142,1.54E-06,-0.069634082,-3.068168886,2.94E-06,0.000143035,1.76E-07,0.543953068,0.010227866,9.795652038,-0.073180033,-0.997305678,0.005105616,-4.107705435,2.68E-05,-3.923008868,-3.80E-09,0.065751045,2.85E-07
1701864342,-4.107705435,-3.923008868,0.065751045,0.034785872,0.001278417,0.998720573,-0.036681422,1.58E-06,-0.069632779,-3.068168885,4.02E-06,0.000162023,1.04E-07,0.483438352,0.014689431,9.799905364,-0.07318004,-0.997305678,0.005105553,-4.107662101,4.33E-05,-3.923008872,-3.94E-09,0.065751327,2.82E-07
1701864342,-4.107662101,-3.923008872,0.065751327,0.034785153,0.00127841,0.998720598,-0.036681424,1.62E-06,-0.069631341,-3.068168885,4.98E-06,0.000178772,4.05E-08,0.42696329,0.01885307,9.803871512,-0.073180048,-0.997305678,0.005105487,-4.107598837,6.33E-05,-3.923008876,-4.07E-09,0.065751605,2.79E-07
1701864342,-4.107598837,-3.923008876,0.065751605,0.034784375,0.001278405,0.998720625,-0.036681426,1.66E-06,-0.069629783,-3.068168885,5.82E-06,0.000193637,-1.53E-08,0.374241123,0.022739848,9.807571112,-0.073180056,-0.997305677,0.00510542,-4.107512458,8.64E-05,-3.92300888,-4.18E-09,0.065751882,2.76E-07
1701864342,-4.107512458,-3.92300888,0.065751882,0.034783543,0.001278401,0.998720654,-0.036681427,1.72E-06,-0.069628119,-3.068168886,6.57E-06,0.000206908,-6.46E-08,0.325005317,0.026369602,9.811023561,-0.073180064,-0.997305677,0.005105351,-4.107394317,0.000118141,-3.923008884,-4.05E-09,0.065752165,2.83E-07
1701864342,-4.107394317,-3.923008884,0.065752165,0.034782786,0.001278395,0.99872068,-0.036681429,1.76E-06,-0.069626606,-3.068168885,5.43E-06,0.000188033,1.68E-08,0.191407865,0.036219197,9.820693866,-0.073180072,-0.997305677,0.005105284,-4.10723997,0.000154347,-3.923008801,8.30E-08,0.065752447,2.82E-07
1701864342,-4.10723997,-3.923008801,0.065752447,0.034782,0.00127841,0.998720684,-0.036682054,1.80E-06,-0.069625035,-3.068167637,1.62E-05,0.000195313,0.000154817,0.122398914,0.040940714,9.825245775,-0.073181322,-0.997305585,0.005105299,-4.107045359,0.00019461,-3.923007195,1.61E-06,0.06575277,3.23E-07
1701864342,-4.107045359,-3.923007195,0.06575277,0.034780831,0.001278764,0.998720303,-0.036693525,1.80E-06,-0.069622723,-3.06814467,0.000198081,0.000287422,0.002848112,0.055815569,0.039676944,9.829968187,-0.073204183,-0.9973039,0.005106719,-4.106811101,0.000234258,-3.923004547,2.65E-06,0.065754695,1.92E-06
1701864343,-4.106811101,-3.923004547,0.065754695,0.034766061,0.001278828,0.998720086,-0.036713414,1.63E-06,-0.06959319,-3.068104872,0.000322646,0.003671206,0.004935237,0.055008779,0.04249101,9.832976664,-0.073243928,-0.99730098,0.005107145,-4.106538077,0.000273024,-3.923001012,3.53E-06,0.065759771,5.08E-06
1701864343,-4.106538077,-3.923001012,0.065759771,0.034724718,0.001277933,0.998720672,-0.036736623,1.26E-06,-0.069510443,-3.068058488,0.000355568,0.010286148,0.005751999,0.055589632,0.035759872,9.832939929,-0.073290498,-0.997297575,0.005103935,-4.106227917,0.00031016,-3.922997293,3.72E-06,0.065769478,9.71E-06
1701864343,-4.106227917,-3.922997293,0.065769478,0.034644303,0.001275767,0.998722453,-0.0367642,9.36E-07,-0.069349465,-3.068003458,0.000434033,0.020010935,0.006824238,0.066551805,0.046556606,9.83209223,-0.073346068,-0.997293532,0.005095614,-4.1058825,0.000345417,-3.922993906,3.39E-06,0.065785283,1.58E-05
1701864343,-4.1058825,-3.922993906,0.065785283,0.034512518,0.001271941,0.998725792,-0.036797551,6.90E-07,-0.069085634,-3.067936998,0.000540855,0.032796569,0.008241721,0.079778114,0.054728249,9.831539368,-0.073413531,-0.997288645,0.005080593,-4.105503737,0.000378762,-3.922990604,3.30E-06,0.065808664,2.34E-05
1701864343,-4.105503737,-3.922990604,0.065808664,0.03431704,0.001265909,0.998731165,-0.036834751,4.88E-07,-0.068694268,-3.067862994,0.000608042,0.048650164,0.009177483,0.091249996,0.04566848,9.831326415,-0.073489142,-0.997283197,0.005056725,-4.105093534,0.000410203,-3.922987537,3.07E-06,0.065841095,3.24E-05
1701864343,-4.105093534,-3.922987537,0.065841095,0.034045513,0.001257201,0.99873896,-0.036875626,3.33E-07,-0.068150623,-3.067781822,0.000670643,0.067579904,0.010066767,0.100202166,0.045553749,9.831291397,-0.073572644,-0.997277215,0.005022131,-4.104653811,0.000439723,-3.922984853,2.68E-06,0.065884046,4.30E-05
1701864343,-4.104653811,-3.922984853,0.065884046,0.033685524,0.001245337,0.998749542,-0.03692002,2.19E-07,-0.067429845,-3.067693821,0.000726813,0.089598985,0.010914139,0.106417616,0.045445701,9.831401329,-0.073663806,-0.997270723,0.004974899,-4.104186514,0.000467297,-3.9229827,2.15E-06,0.065938984,5.49E-05
1701864343,-4.104186514,-3.9229827,0.065938984,0.033224598,0.001229831,0.998763233,-0.036967793,1.39E-07,-0.066506959,-3.067599297,0.000776407,0.114722881,0.011723817,0.109562091,0.045326071,9.831635798,-0.073762423,-0.99726374,0.004913099,-4.103693621,0.000492893,-3.922981228,1.47E-06,0.066007372,6.84E-05
1701864343,-4.103693621,-3.922981228,0.066007372,0.032650185,0.001210192,0.99878031,-0.03701882,8.97E-08,-0.065356843,-3.06749852,0.000819202,0.142969592,0.012500247,0.109303609,0.045189949,9.831970288,-0.073868311,-0.997256285,0.004834775,-4.10317715,0.00051647,-3.922980584,6.44E-07,0.066090663,8.33E-05
1701864343,-4.10317715,-3.922980584,0.066090663,0.031949652,0.001185925,0.998800984,-0.037072994,6.67E-08,-0.063954208,-3.067391722,0.000854906,0.174359826,0.013248143,0.105311112,0.04503254,9.832374558,-0.073981306,-0.997248373,0.004737944,-4.102639167,0.000537983,-3.922980919,-3.34E-07,0.0661903,9.96E-05
1701864343,-4.102639167,-3.922980919,0.0661903,0.031110268,0.001156524,0.99882539,-0.037130224,6.77E-08,-0.062273577,-3.067279096,0.000883159,0.208917202,0.01397253,0.09725256,0.044850031,9.83281138,-0.074101262,-0.997240018,0.004620593,-4.102081792,0.000557376,-3.92298238,-1.46E-06,0.066307714,0.000117414
1701864343,-4.102081792,-3.92298238,0.066307714,0.030119192,0.001121477,0.998853567,-0.037190439,9.08E-08,-0.060289257,-3.06716079,0.000903535,0.246668463,0.014678781,0.084795262,0.044638698,9.833235087,-0.074228049,-0.997231227,0.004480674,-4.101507205,0.000574587,-3.922985121,-2.74E-06,0.066444318,0.000136604
1701864343,-4.101507205,-3.922985121,0.066444318,0.028963458,0.001080264,0.99888544,-0.037253584,1.35E-07,-0.057975313,-3.067036909,0.000915536,0.287643714,0.015372665,0.067603995,0.044395817,9.833589945,-0.074361549,-0.997222007,0.004316105,-4.100917658,0.000589547,-3.922989292,-4.17E-06,0.066601505,0.000157186
1701864343,-4.100917658,-3.922989292,0.066601505,0.027629965,0.001032353,0.9989208,-0.037319627,1.98E-07,-0.055305537,-3.066907503,0.000918577,0.331876687,0.016060394,0.045341407,0.04411878,9.833808398,-0.074501655,-0.997212359,0.004124758,-4.100314971,0.000602687,-3.922994693,-5.40E-06,0.066780229,0.000178725
1701864343,-4.100314971,-3.922994693,0.066780229,0.026109,0.000977447,0.998959104,-0.037390805,3.86E-07,-0.052260527,-3.066768062,0.000955166,0.378521817,0.017308627,0.012064915,0.042504069,9.833294288,-0.074652731,-0.997201945,0.003905332,-4.099699987,0.000614984,-3.923000537,-5.84E-06,0.066980557,0.000200328
1701864343,-4.099699987,-3.923000537,0.066980557,0.024398144,0.000915617,0.99899933,-0.037473064,8.57E-07,-0.04883549,-3.066606631,0.001072421,0.425762531,0.020041428,-0.037222934,0.038835358,9.832005308,-0.074826454,-0.997189862,0.003657949,-4.099072332,0.000627655,-3.923006758,-6.22E-06,0.067201372,0.000220815
1701864343,-4.099072332,-3.923006758,0.067201372,0.022504857,0.000846898,0.999040316,-0.03756675,1.30E-06,-0.04504538,-3.066422426,0.001129879,0.471144456,0.022872528,-0.099683133,0.038617887,9.82987581,-0.075023276,-0.997176044,0.003383039,-4.098431757,0.000640575,-3.923012232,-5.47E-06,0.067443246,0.000241873
1701864343,-4.098431757,-3.923012232,0.067443246,0.020445056,0.000781051,0.999080763,-0.037669863,2.04E-05,-0.040922789,-3.066219729,0.00345146,0.512475303,0.025168267,-0.155744559,0.027077493,9.871217006,-0.075238534,-0.997160743,0.003100991,-4.097778642,0.000653115,-3.923015113,-2.88E-06,0.067708119,0.000264873
1701864343,-4.097778642,-3.923015113,0.067708119,0.018241895,0.000735557,0.999119385,-0.037777589,9.16E-05,-0.036515351,-3.066008561,0.009873395,0.547885503,0.026199723,-0.198206812,0.006963109,9.948038585,-0.075461807,-0.997144625,0.002848088,-4.097113454,0.000665188,-3.923014829,2.83E-07,0.067998672,0.000290553
1701864343,-4.097113454,-3.923014829,0.067998672,0.015922606,0.000716057,0.999154894,-0.037887412,0.000224486,-0.031877958,-3.065793634,0.017431086,0.576473874,0.026610708,-0.237261073,0.000463941,10.04051522,-0.075687983,-0.997128063,0.002637437,-4.096436799,0.000676654,-3.923011905,2.92E-06,0.068318379,0.000319708
1701864343,-4.096436799,-3.923011905,0.068318379,0.013518636,0.000714933,0.9991861,-0.037998321,0.000401478,-0.027072906,-3.065576176,0.022798302,0.597319669,0.02683327,-0.271735492,0.001764145,10.14824187,-0.075915459,-0.997111233,0.002456072,-4.095749493,0.000687306,-3.923006848,5.06E-06,0.068670679,0.0003523
1701864343,-4.095749493,-3.923006848,0.068670679,0.011060783,0.000724609,0.999212094,-0.038109393,0.000605186,-0.022161179,-3.065357427,0.025992062,0.61058567,0.026877004,-0.304364043,0.003217323,10.25404434,-0.076142703,-0.997094298,0.002291116,-4.09505255,0.000696943,-3.92300012,6.73E-06,0.069058931,0.000388252
1701864343,-4.09505255,-3.92300012,0.069058931,0.008578869,0.000738047,0.999232257,-0.038219826,0.000819316,-0.017201829,-3.06513859,0.027153569,0.61651114,0.026759083,-0.335156935,0.004629867,10.35590235,-0.076368304,-0.9970774,0.002130726,-4.094347164,0.000705386,-3.922992128,7.99E-06,0.069486382,0.00042745
1701864343,-4.094347164,-3.922992128,0.069486382,0.00610145,0.000749147,0.999246266,-0.03832898,0.001029517,-0.012251437,-3.064920769,0.026528681,0.615403182,0.026505275,-0.363489878,0.005886424,10.45299294,-0.076591038,-0.997060656,0.001964889,-4.093634689,0.000712475,-3.922983209,8.92E-06,0.069956129,0.000469747
1701864343,-4.093634689,-3.922983209,0.069956129,0.003655557,0.000753038,0.999254079,-0.038436384,0.001223973,-0.007363616,-3.064704916,0.024435659,0.607630113,0.026146572,-0.388841315,0.006902954,10.54457079,-0.076809921,-0.997044155,0.001785965,-4.092916612,0.000718077,-3.922973626,9.58E-06,0.070471093,0.000514964
1701864343,-4.092916612,-3.922973626,0.070471093,0.001266469,0.000746227,0.99925591,-0.038541743,0.001393725,-0.002588577,-3.064491792,0.021233549,0.593614469,0.02571607,-0.410791742,0.00762609,10.62996715,-0.077024238,-0.997027954,0.001588968,-4.092194528,0.000722084,-3.922963575,1.01E-05,0.071033983,0.00056289
1701864343,-4.092194528,-3.922963575,0.071033983,-0.001042483,0.000726645,0.999252198,-0.038644921,0.00153278,0.002027245,-3.064281944,0.01729305,0.573825754,0.025246298,-0.429021952,0.008032027,10.70859199,-0.07723356,-0.997012084,0.00137163,-4.091470109,0.000724419,-3.922953184,1.04E-05,0.071647277,0.000613294
1701864343,-4.091470109,-3.922953184,0.071647277,-0.003250066,0.000693581,0.999243569,-0.038745921,0.001638001,0.006441512,-3.064075706,0.012971321,0.548773013,0.02476708,-0.443307613,0.00812194,10.77993685,-0.077437733,-0.996996545,0.001134259,-4.090745077,0.000725032,-3.922942531,1.07E-05,0.072313194,0.000665917
1701864343,-4.090745077,-3.922942531,0.072313194,-0.005337279,0.000647545,0.99923079,-0.038844854,0.001708844,0.010616239,-3.0638732,0.00859167,0.518997315,0.02430399,-0.453514962,0.007918239,10.84357775,-0.077636861,-0.996981316,0.000879443,-4.090021173,0.000723904,-3.922931646,1.09E-05,0.073033681,0.000720487
1701864343,-4.090021173,-3.922931646,0.073033681,-0.00728744,0.000590068,0.999214728,-0.038941915,0.001746968,0.014517988,-3.063674361,0.004428645,0.485064235,0.023877403,-0.45959311,0.00745843,10.89917818,-0.07783127,-0.996966358,0.000611636,-4.089300129,0.000721044,-3.92292053,1.11E-05,0.073810397,0.000776716
1701864343,-4.089300129,-3.92292053,0.073810397,-0.009086246,0.000523462,0.999196303,-0.03903735,0.001755777,0.018118009,-3.063478968,0.000698603,0.447556422,0.023502062,-0.461567837,0.006790809,10.94649154,-0.078021464,-0.996951623,0.000336676,-4.088583641,0.000716488,-3.922909161,1.14E-05,0.074644703,0.000834306
1701864343,-4.088583641,-3.922909161,0.074644703,-0.010721802,0.000450567,0.999176446,-0.039131433,0.00173991,0.021392314,-3.063286679,-0.002444516,0.407066332,0.023187122,-0.45953235,0.005968577,10.98536294,-0.078208074,-0.996937056,6.13E-05,-4.087873343,0.000710298,-3.92289751,1.17E-05,0.075537659,0.000892956
1701864343,-4.087873343,-3.92289751,0.075537659,-0.012184626,0.000374506,0.999156063,-0.039224443,0.001704755,0.024321704,-3.063097071,-0.004908773,0.364189195,0.022936538,-0.453639955,0.005046428,11.01572994,-0.078391806,-0.996922606,-0.00020749,-4.087170786,0.000702556,-3.922885545,1.20E-05,0.076490021,0.000952362
1701864343,-4.087170786,-3.922885545,0.076490021,-0.013467617,0.000298445,0.999135995,-0.039316646,0.001655977,0.026891735,-3.062909681,-0.006659938,0.319516301,0.022749725,-0.444094091,0.004075984,11.03762217,-0.07857339,-0.996908225,-0.000462628,-4.08647742,0.000693367,-3.922873243,1.23E-05,0.077502245,0.001012224
1701864343,-4.08647742,-3.922873243,0.077502245,-0.014566011,0.000225397,0.999116994,-0.039408282,0.001599116,0.029092637,-3.062724041,-0.007714216,0.27362865,0.02262238,-0.431140742,0.003103983,11.05115952,-0.078753535,-0.996893873,-0.000697647,-4.085794572,0.000682847,-3.92286059,1.27E-05,0.078574495,0.00107225
1701864343,-4.085794572,-3.92286059,0.078574495,-0.015477304,0.000158054,0.999099701,-0.039499558,0.001539253,0.03091918,-3.06253971,-0.00812894,0.227091043,0.02254738,-0.415058597,0.002169397,11.05654905,-0.078932886,-0.99687952,-0.00090687,-4.085123442,0.000671131,-3.922847589,1.30E-05,0.079706652,0.001132157
1701864343,-4.085123442,-3.922847589,0.079706652,-0.016201162,9.87E-05,0.999084628,-0.039590642,0.001480764,0.032370504,-3.062356299,-0.007992147,0.180446642,0.022515689,-0.396152017,0.001303297,11.05408037,-0.079112001,-0.996865143,-0.00108567,-4.084465084,0.000658357,-3.922834257,1.33E-05,0.080898328,0.001191675
1701864343,-4.084465084,-3.922834257,0.080898328,-0.01673931,4.90E-05,0.999072149,-0.039681659,0.001427154,0.033449907,-3.062173491,-0.007411884,0.134212054,0.022517213,-0.374742088,0.000527483,11.04411987,-0.079291321,-0.996850727,-0.001230619,-4.083820409,0.000644675,-3.922820625,1.36E-05,0.08214888,0.001250553
1701864343,-4.083820409,-3.922820625,0.08214888,-0.017095403,1.02E-05,0.9990625,-0.039772695,0.001380983,0.034164589,-3.061991048,-0.006505986,0.088872967,0.022541561,-0.351160798,-0.000144308,11.02710368,-0.079471165,-0.996836265,-0.001339544,-4.083190175,0.000630234,-3.922806741,1.39E-05,0.083457435,0.001308554
1701864343,-4.083190175,-3.922806741,0.083457435,-0.017274889,-1.71E-05,0.999055782,-0.039863799,0.001343858,0.03452538,-3.061808815,-0.005392893,0.044880355,0.022578685,-0.325743528,-0.000706696,11.00352972,-0.079651726,-0.996821754,-0.001411514,-4.08257499,0.000615185,-3.92279266,1.41E-05,0.084822902,0.001365467
1701864343,-4.08257499,-3.92279266,0.084822902,-0.017284858,-3.28E-05,0.999051967,-0.039954984,0.001316488,0.034546434,-3.061626717,-0.004183942,0.002647272,0.022619388,-0.298824844,-0.001160621,10.97394901,-0.079833077,-0.996807196,-0.001446763,-4.081975316,0.000599675,-3.922778444,1.42E-05,0.086244002,0.0014211
1701864343,-4.081975316,-3.922778444,0.086244002,-0.017133877,-3.72E-05,0.999050914,-0.040046236,0.001298794,0.0342449,-3.06144475,-0.002977376,-0.037453756,0.022655694,-0.270732673,-0.001513072,10.93895639,-0.080015183,-0.996792595,-0.001446557,-4.081391469,0.000583847,-3.922764156,1.43E-05,0.087719287,0.001475285
1701864343,-4.081391469,-3.922764156,0.087719287,-0.016831826,-3.10E-05,0.999052385,-0.040137515,0.001290047,0.033640582,-3.06126297,-0.001854191,-0.075092759,0.022681088,-0.241785814,-0.001774706,10.89918103,-0.080197918,-0.996777958,-0.001413034,-4.08082363,0.000567839,-3.922749861,1.43E-05,0.089247165,0.001527878
1701864343,-4.08082363,-3.922749861,0.089247165,-0.016389724,-1.52E-05,0.999056066,-0.040228765,0.001289026,0.032755584,-3.061081476,-0.000875779,-0.10998375,0.022690633,-0.212289758,-0.001959477,10.85527686,-0.080381085,-0.996763293,-0.001349019,-4.080271852,0.000551778,-3.922735617,1.42E-05,0.090825926,0.001578761
1701864343,-4.080271852,-3.922735617,0.090825926,-0.015819549,8.93E-06,0.999061583,-0.040319914,0.001294183,0.031613953,-3.0609004,-8.32E-05,-0.141885608,0.022680977,-0.182535743,-0.002082326,10.80791312,-0.080564438,-0.996748609,-0.001257835,-4.079736068,0.000535784,-3.922721472,1.41E-05,0.092453765,0.001627838
1701864343,-4.079736068,-3.922721472,0.092453765,-0.015134066,4.01E-05,0.999068526,-0.040410886,0.001303803,0.03024131,-3.060719887,0.000501941,-0.17060239,0.022650282,-0.152797949,-0.00215899,10.75776526,-0.080747701,-0.996733917,-0.001143117,-4.079216103,0.000519966,-3.922707467,1.40E-05,0.094128805,0.00167504
1701864343,-4.079216103,-3.922707467,0.094128805,-0.014346643,7.68E-05,0.999076468,-0.040501599,0.001316144,0.02866449,-3.060540085,0.000875918,-0.19598315,0.022598071,-0.123333739,-0.002204007,10.70550629,-0.080930592,-0.996719229,-0.001008644,-4.078711681,0.000504422,-3.922693628,1.38E-05,0.095849124,0.001720319
1701864343,-4.078711681,-3.922693628,0.095849124,-0.013471079,0.00011783,0.999084985,-0.040591972,0.001329562,0.026911188,-3.060361133,0.001049873,-0.217921246,0.022525035,-0.094381831,-0.002230923,10.65179878,-0.081112835,-0.996704556,-0.00085819,-4.078222441,0.00048924,-3.922679967,1.37E-05,0.097612774,0.001763651
1701864343,-4.078222441,-3.922679967,0.097612774,-0.012521434,0.000161842,0.999093673,-0.040681933,0.001342603,0.025009609,-3.060183153,0.001046729,-0.236353213,0.022432803,-0.066163289,-0.002250712,10.59728744,-0.081294176,-0.996689908,-0.000695402,-4.077747944,0.000474497,-3.922666485,1.35E-05,0.099417808,0.001805033
1701864343,-4.077747944,-3.922666485,0.099417808,-0.011511859,0.000207687,0.99910216,-0.040771413,0.001354069,0.022988135,-3.060006245,0.000897705,-0.251257209,0.022323695,-0.038880259,-0.002272415,10.54259246,-0.081474395,-0.996675298,-0.000523708,-4.077287685,0.000460259,-3.922653168,1.33E-05,0.101262291,0.001844483
1701864343,-4.077287685,-3.922653168,0.101262291,-0.010456441,0.000254355,0.999110119,-0.040860357,0.001363063,0.020875002,-3.059830482,0.000638885,-0.262651095,0.022200483,-0.012717311,-0.002301984,10.48830368,-0.081653311,-0.996660733,-0.00034625,-4.076841102,0.000446583,-3.922639988,1.32E-05,0.103144329,0.001882038
1701864343,-4.076841102,-3.922639988,0.103144329,-0.009369053,0.000300993,0.999117277,-0.040948719,0.001368995,0.018698004,-3.059655911,0.000308045,-0.270590174,0.022066156,0.012159614,-0.002343309,10.43497542,-0.081830785,-0.996646224,-0.000165847,-4.076407587,0.000433514,-3.922626908,1.31E-05,0.105062078,0.00191775
1701864343,-4.076407587,-3.922626908,0.105062078,-0.00826321,0.000346906,0.999123419,-0.041036467,0.001371577,0.016484208,-3.059482552,-5.81E-05,-0.275164648,0.021923717,0.035601796,-0.002397398,10.38312213,-0.082006724,-0.996631776,1.50E-05,-4.075986497,0.00042109,-3.922613882,1.30E-05,0.107013767,0.001951688
1701864343,-4.075986497,-3.922613882,0.107013767,-0.007151942,0.000391555,0.999128394,-0.041123582,0.001370795,0.014259696,-3.059310405,-0.000426194,-0.276496825,0.021776008,0.057478813,-0.002463677,10.33321479,-0.082181077,-0.996617395,0.000194201,-4.075577159,0.000409339,-3.922600855,1.30E-05,0.108997703,0.001983936
1701864343,-4.075577159,-3.922600855,0.108997703,-0.006047677,0.000434536,0.999132108,-0.041210053,0.001366867,0.012049334,-3.05913945,-0.00076778,-0.274738126,0.021625571,0.077677224,-0.002539382,10.285678,-0.08235383,-0.996603085,0.000369867,-4.075178878,0.00039828,-3.922587768,1.31E-05,0.11101229,0.002014587
1701864343,-4.075178878,-3.922587768,0.11101229,-0.004962133,0.000475561,0.999134526,-0.041295883,0.001360198,0.00987656,-3.05896965,-0.001060487,-0.27006593,0.021474557,0.096101757,-0.00262099,10.2408878,-0.082525005,-0.996588848,0.000540468,-4.074790951,0.000387928,-3.922574558,1.32E-05,0.113056037,0.002043746
1701864343,-4.074790951,-3.922574558,0.113056037,-0.003906227,0.00051444,0.999135668,-0.041381082,0.00135132,0.007763203,-3.058800963,-0.001288472,-0.262680306,0.02132466,0.112674096,-0.002703684,10.1991701,-0.082694649,-0.996574683,0.000704704,-4.074412664,0.000378286,-3.922561159,1.34E-05,0.115127563,0.002071527
1701864343,-4.074412664,-3.922561159,0.115127563,-0.002889995,0.000551053,0.999135598,-0.041465666,0.001340847,0.005729325,-3.058633338,-0.00144244,-0.25280067,0.021177105,0.127334225,-0.002782777,10.16079982,-0.082862831,-0.99656059,0.000861483,-4.074043309,0.000369355,-3.922547508,1.37E-05,0.11722561,0.002098047
1701864343,-4.074043309,-3.922547508,0.11722561,-0.001922528,0.000585331,0.999134419,-0.041549656,0.001329419,0.003793096,-3.058466724,-0.001519222,-0.240662405,0.021032656,0.14003917,-0.002853135,10.12600045,-0.083029633,-0.996546567,0.001009888,-4.073682181,0.000361128,-3.922533541,1.40E-05,0.119349043,0.002123433
1701864343,-4.073682181,-3.922533541,0.119349043,-0.001011921,0.000617235,0.999132265,-0.041633075,0.001317661,0.001970692,-3.058301073,-0.001521036,-0.226513479,0.020891661,0.150764359,-0.002910494,10.09494439,-0.083195147,-0.996532612,0.00114914,-4.073328588,0.000353593,-3.922519199,1.43E-05,0.121496854,0.002147811
1701864343,-4.073328588,-3.922519199,0.121496854,-0.000165232,0.000646743,0.999129288,-0.041715949,0.001306145,0.000276217,-3.05813634,-0.00145452,-0.21061111,0.02075411,0.159502368,-0.00295076,10.0677537,-0.083359466,-0.996518723,0.001278573,-4.072981856,0.000346732,-3.922504423,1.48E-05,0.123668165,0.002171311
1701864343,-4.072981856,-3.922504423,0.123668165,0.00061154,0.000673833,0.999125655,-0.0417983,0.001295367,-0.001278341,-3.057972487,-0.001329643,-0.193218497,0.020619712,0.16626402,-0.002971168,10.04450132,-0.083522683,-0.996504896,0.00139761,-4.072641333,0.000340523,-3.922489163,1.53E-05,0.125862229,0.002194064
1701864343,-4.072641333,-3.922489163,0.125862229,0.001313466,0.000698481,0.999121534,-0.041880149,0.001285724,-0.002683132,-3.057809484,-0.001158575,-0.174601652,0.020487978,0.171076978,-0.002969431,10.02521283,-0.083684882,-0.996491131,0.001505751,-4.072306392,0.000334941,-3.92247337,1.58E-05,0.128078427,0.002216198
1701864343,-4.072306392,-3.92247337,0.128078427,0.001936689,0.000720652,0.999117091,-0.041961514,0.001277508,-0.003930448,-3.057647309,-0.000954604,-0.155026367,0.020358303,0.173986552,-0.002944738,10.00986858,-0.08384614,-0.996477424,0.001602563,-4.071976438,0.000329954,-3.922457002,1.64E-05,0.130316266,0.00223784
1701864343,-4.071976438,-3.922457002,0.130316266,0.002478411,0.0007403,0.999112479,-0.04204241,0.001270905,-0.005014692,-3.057485949,-0.000731149,-0.134755334,0.020230042,0.175053969,-0.002896762,9.998406276,-0.084006522,-0.996463776,0.001687682,-4.071650908,0.00032553,-3.922440019,1.70E-05,0.132575379,0.002259113
1701864343,-4.071650908,-3.922440019,0.132575379,0.002936867,0.000757372,0.999107836,-0.042122846,0.001265996,-0.005932333,-3.057325396,-0.00050093,-0.114045448,0.020102581,0.174356805,-0.00282654,9.990723825,-0.084166083,-0.996450184,0.00176081,-4.071329278,0.00032163,-3.922422389,1.76E-05,0.134855516,0.002280136
1701864343,-4.071329278,-3.922422389,0.134855516,0.003311293,0.000771811,0.999103278,-0.04220283,0.001262774,-0.006681841,-3.057165648,-0.000275304,-0.093145306,0.019975389,0.171986869,-0.002735379,9.986682555,-0.084324861,-0.996436651,0.001821729,-4.071011062,0.000318216,-3.922404083,1.83E-05,0.13715654,0.002301024
1701864343,-4.071011062,-3.922404083,0.13715654,0.003601884,0.000783562,0.999098901,-0.042282365,0.001261152,-0.007263602,-3.057006711,-6.38E-05,-0.072292923,0.019848056,0.168050228,-0.002625666,9.986110655,-0.084482884,-0.996423175,0.001870303,-4.070695819,0.000315243,-3.922385077,1.90E-05,0.139478423,0.002321884
1701864343,-4.070695819,-3.922385077,0.139478423,0.003809742,0.000792578,0.999094773,-0.042361451,0.001260986,-0.007679811,-3.056848591,0.000126161,-0.051713676,0.019720324,0.162664703,-0.002499737,9.988806838,-0.08464017,-0.996409759,0.001906493,-4.070383151,0.000312668,-3.922365349,1.97E-05,0.141821239,0.002342816
1701864343,-4.070383151,-3.922365349,0.141821239,0.003936817,0.000798828,0.999090938,-0.042440087,0.001262086,-0.007934365,-3.056691299,0.000289377,-0.031618494,0.019592088,0.155959516,-0.002360671,9.994544136,-0.084796723,-0.996396402,0.001930361,-4.070072708,0.000310443,-3.922344884,2.05E-05,0.144185152,0.002363913
1701864343,-4.070072708,-3.922344884,0.144185152,0.003985843,0.000802302,0.999087417,-0.04251827,0.001264238,-0.008032723,-3.056534846,0.000422815,-0.012202289,0.019463402,0.148072454,-0.002211165,10.00307382,-0.084952541,-0.996383106,0.001942082,-4.069764188,0.00030852,-3.922323668,2.12E-05,0.146570413,0.002385261
1701864343,-4.069764188,-3.922323668,0.146570413,0.003960268,0.000803016,0.999084207,-0.042595996,0.001267219,-0.007981779,-3.05637924,0.000525439,0.00635736,0.019334455,0.139149225,-0.002054356,10.01412933,-0.085107613,-0.996369873,0.001941945,-4.069457337,0.000306851,-3.92230169,2.20E-05,0.148977349,0.002406936
1701864343,-4.069457337,-3.92230169,0.148977349,0.003864179,0.000801018,0.999081288,-0.042673261,0.001270809,-0.007789701,-3.056224493,0.000597944,0.023901259,0.019205554,0.129340403,-0.001892746,10.02743025,-0.085261922,-0.996356702,0.001930358,-4.069151951,0.000305386,-3.922278946,2.27E-05,0.151406354,0.002429005
1701864343,-4.069151951,-3.922278946,0.151406354,0.003702226,0.000796388,0.999078621,-0.042750062,0.001274803,-0.00746579,-3.05607061,0.00064243,0.04028941,0.019077091,0.118800617,-0.001729064,10.04268621,-0.085415449,-0.996343596,0.001907849,-4.068847876,0.000304075,-3.92225543,2.35E-05,0.153857882,0.002451528
1701864344,-4.068847876,-3.92225543,0.153857882,0.003479539,0.00078924,0.999076158,-0.042826397,0.001279021,-0.007020308,-3.055917598,0.000662038,0.055401565,0.018949515,0.107685415,-0.001565255,10.05960062,-0.085568173,-0.996330554,0.001875053,-4.068545006,0.00030287,-3.922231142,2.43E-05,0.156332434,0.002474552
1701864344,-4.068545006,-3.922231142,0.156332434,0.003201654,0.000779721,0.99907384,-0.042902266,0.001283309,-0.006464326,-3.055765459,0.000660593,0.06913754,0.018823296,0.096150443,-0.001403394,10.0778744,-0.085720071,-0.996317575,0.001832715,-4.068243284,0.000301722,-3.922206085,2.51E-05,0.158830552,0.002498119
1701864344,-4.068243284,-3.922206085,0.158830552,0.002874425,0.000768012,0.999071603,-0.042977669,0.001287547,-0.00580956,-3.055614191,0.000642257,0.081417289,0.0186989,0.084348373,-0.00124473,10.09720941,-0.085871123,-0.99630466,0.00178167,-4.067942698,0.000300586,-3.922180263,2.58E-05,0.16135281,0.002522257
1701864344,-4.067942698,-3.922180263,0.16135281,0.002503947,0.000754318,0.999069384,-0.043052609,0.001291646,-0.005068207,-3.055463792,0.000611222,0.092180762,0.018576758,0.072428228,-0.001090642,10.11731171,-0.086021309,-0.996291808,0.001722835,-4.067643282,0.000299416,-3.922153684,2.66E-05,0.163899799,0.002546989
1701864344,-4.067643282,-3.922153684,0.163899799,0.002096478,0.000738871,0.999067121,-0.043127089,0.001295546,-0.004252789,-3.055314257,0.000571458,0.101387544,0.018457245,0.060532515,-0.000941723,10.13789462,-0.086170615,-0.996279017,0.001657194,-4.067345111,0.00029817,-3.92212636,2.73E-05,0.166472126,0.002572327
1701864344,-4.067345111,-3.92212636,0.166472126,0.00165836,0.000721922,0.999064759,-0.043201115,0.001299215,-0.003376001,-3.055165577,0.000526516,0.109016305,0.01834067,0.048796809,-0.000798764,10.15868145,-0.086319029,-0.996266285,0.001585779,-4.067048301,0.00029681,-3.922098302,2.81E-05,0.1690704,0.002598274
1701864344,-4.067048301,-3.922098302,0.1690704,0.001195947,0.000703732,0.999062248,-0.043274693,0.001302641,-0.002450562,-3.055017743,0.000479391,0.115064058,0.018227256,0.037347228,-0.000661852,10.17940802,-0.086466542,-0.996253611,0.001509653,-4.066753003,0.000295298,-3.922069528,2.88E-05,0.171695224,0.002624824
1701864344,-4.066753003,-3.922069528,0.171695224,0.000715534,0.000684575,0.99905955,-0.043347832,0.00130583,-0.001489073,-3.054870746,0.000432447,0.119545266,0.018117146,0.026300377,-0.000531368,10.19982487,-0.086613151,-0.996240994,0.001429895,-4.0664594,0.000293603,-3.922040056,2.95E-05,0.17434719,0.002651966
1701864344,-4.0664594,-3.922040056,0.17434719,0.000223292,0.000664723,0.999056638,-0.043420539,0.001308801,-0.000503888,-3.054724573,0.000387393,0.122490792,0.018010397,0.015761203,-0.000407083,10.21969916,-0.086758858,-0.99622843,0.001347582,-4.066167704,0.000291695,-3.922009906,3.01E-05,0.177026867,0.002679677
1701864344,-4.066167704,-3.922009906,0.177026867,-0.000274794,0.000644447,0.999053494,-0.043492823,0.001311578,0.00049301,-3.054579215,0.000345312,0.123946732,0.017906986,0.005823381,-0.000289152,10.23881631,-0.086903669,-0.996215918,0.001263771,-4.065878155,0.00028955,-3.921979102,3.08E-05,0.179734799,0.002707932
1701864344,-4.065878155,-3.921979102,0.179734799,-0.000772979,0.000624011,0.999050114,-0.043564695,0.001314188,0.001490121,-3.054434659,0.000306717,0.12397313,0.017806822,-0.003432412,-0.0001772,10.25698133,-0.087047591,-0.996203456,0.001179488,-4.065591009,0.000287146,-3.921947668,3.14E-05,0.182471494,0.002736695
1701864344,-4.065591009,-3.921947668,0.182471494,-0.001265812,0.000603668,0.999046505,-0.043636161,0.001316659,0.00247653,-3.054290895,0.000271643,0.122642615,0.017709751,-0.01193768,-7.13E-05,10.27401987,-0.087190637,-0.996191042,0.001095714,-4.065306542,0.000284467,-3.921915631,3.20E-05,0.185237423,0.002765929
1701864344,-4.065306542,-3.921915631,0.185237423,-0.001748177,0.000583652,0.999042682,-0.043707233,0.001319011,0.003441994,-3.054147914,0.000239752,0.120038961,0.017615574,-0.019637414,2.90E-05,10.28977899,-0.087332823,-0.996178674,0.00101337,-4.065025039,0.000281502,-3.921883019,3.26E-05,0.188033011,0.002795588
1701864344,-4.065025039,-3.921883019,0.188033011,-0.002215333,0.000564183,0.999038672,-0.043777918,0.001321259,0.004377023,-3.054005706,0.000210441,0.116255605,0.017524054,-0.02648887,0.000123478,10.30412766,-0.087474166,-0.996166351,0.000933316,-4.064746797,0.000278242,-3.92184986,3.32E-05,0.190858635,0.002825624
1701864344,-4.064746797,-3.92184986,0.190858635,-0.002662949,0.000545458,0.999034506,-0.043848225,0.001323414,0.005272945,-3.053864265,0.000182958,0.111394129,0.017434931,-0.032462501,0.000212663,10.31695701,-0.087614684,-0.996154071,0.000856333,-4.064472114,0.000274683,-3.921816184,3.37E-05,0.19371462,0.002855985
1701864344,-4.064472114,-3.921816184,0.19371462,-0.003087127,0.000527655,0.999030223,-0.043918161,0.001325474,0.006121957,-3.053723582,0.000156497,0.10556273,0.017347935,-0.037540389,0.000296396,10.32818032,-0.087754398,-0.996141833,0.000783125,-4.064201287,0.000270827,-3.921782019,3.42E-05,0.196601237,0.002886617
1701864344,-4.064201287,-3.921782019,0.196601237,-0.003484425,0.000510927,0.999025864,-0.043987733,0.001327434,0.006917168,-3.053583654,0.00013029,0.098874702,0.017262792,-0.04171687,0.000375031,10.33773279,-0.087893327,-0.996129637,0.000714314,-4.063934611,0.000266676,-3.921747396,3.46E-05,0.1995187,0.002917463
1701864344,-4.063934611,-3.921747396,0.1995187,-0.003851872,0.000495405,0.999021473,-0.044056948,0.001329282,0.007652627,-3.053444475,0.000103674,0.091446929,0.017179235,-0.044996696,0.00044844,10.34557111,-0.088031491,-0.99611748,0.000650436,-4.063672372,0.000262239,-3.921712343,3.51E-05,0.202467165,0.002948465
1701864344,-4.063672372,-3.921712343,0.202467165,-0.004186971,0.000481197,0.999017092,-0.044125812,0.001331001,0.008323341,-3.053306042,7.61E-05,0.083398427,0.017097009,-0.047395436,0.000516981,10.3516728,-0.08816891,-0.996105362,0.00059194,-4.063414846,0.000257527,-3.921676889,3.55E-05,0.205446731,0.002979565
1701864344,-4.063414846,-3.921676889,0.205446731,-0.004487711,0.000468389,0.999012764,-0.044194328,0.001332569,0.008925279,-3.053168351,4.74E-05,0.074848927,0.017015879,-0.04893745,0.000580542,10.3560354,-0.0883056,-0.996093284,0.00053919,-4.063162293,0.000252553,-3.92164106,3.58E-05,0.208457436,0.003010705
1701864344,-4.063162293,-3.92164106,0.208457436,-0.004752557,0.000457046,0.999008526,-0.044262503,0.001333967,0.00945537,-3.0530314,1.73E-05,0.065917532,0.016935626,-0.049656149,0.000639517,10.35867545,-0.088441579,-0.996081244,0.000492467,-4.062914958,0.000247335,-3.921604883,3.62E-05,0.211499264,0.003041828
1701864344,-4.062914958,-3.921604883,0.211499264,-0.004980444,0.000447213,0.999004413,-0.044330338,0.001335172,0.009911483,-3.052895187,-1.41E-05,0.056721437,0.016856056,-0.049591868,0.00069385,10.35962742,-0.088576861,-0.996069242,0.000451967,-4.062673066,0.000241891,-3.92156838,3.65E-05,0.214572141,0.003072877
1701864344,-4.062673066,-3.92156838,0.214572141,-0.005170768,0.000438915,0.999000452,-0.044397837,0.001336166,0.010292408,-3.052759709,-4.66E-05,0.04737475,0.016776996,-0.048792063,0.000744005,10.35894236,-0.088711458,-0.996057279,0.000417811,-4.062436823,0.000236243,-3.921531576,3.68E-05,0.21767594,0.0031038
1701864344,-4.062436823,-3.921531576,0.21767594,-0.005323366,0.000432159,0.998996666,-0.044465003,0.001336933,0.010597817,-3.052624964,-7.96E-05,0.037987399,0.016698294,-0.047309148,0.000790001,10.3566866,-0.08884538,-0.996045354,0.000390043,-4.062206411,0.000230412,-3.921494489,3.71E-05,0.220810484,0.003134544
1701864344,-4.062206411,-3.921494489,0.220810484,-0.005438496,0.000426935,0.998993071,-0.044531836,0.001337461,0.010828226,-3.05249095,-0.000112787,0.028664139,0.016619818,-0.045200706,0.000832387,10.35294022,-0.088978636,-0.996033467,0.000368638,-4.061981987,0.000224423,-3.921457139,3.74E-05,0.223975547,0.003165062
1701864344,-4.061981987,-3.921457139,0.223975547,-0.005516811,0.000423219,0.998989677,-0.044598339,0.001337745,0.010984945,-3.052357665,-0.000145492,0.019503671,0.016541453,-0.042527345,0.000871264,10.34779558,-0.089111231,-0.996021618,0.000353501,-4.061763687,0.0002183,-3.921419541,3.76E-05,0.227170857,0.00319531
1701864344,-4.061763687,-3.921419541,0.227170857,-0.005559335,0.000420971,0.998986485,-0.044664513,0.001337782,0.011070023,-3.052225106,-0.000177114,0.010597874,0.0164631,-0.039352966,0.000907256,10.34135564,-0.08924317,-0.996009808,0.000344479,-4.061551619,0.000212068,-3.92138171,3.78E-05,0.230396102,0.003225246
1701864344,-4.061551619,-3.92138171,0.230396102,-0.005567432,0.000420141,0.998983495,-0.044730357,0.001337576,0.011086186,-3.05209327,-0.00020704,0.002031144,0.016384673,-0.035742695,0.000940536,10.33373242,-0.089374455,-0.995998037,0.000341361,-4.061345868,0.000205752,-3.921343657,3.81E-05,0.233650935,0.003254833
1701864344,-4.061345868,-3.921343657,0.233650935,-0.00554277,0.000420664,0.998980696,-0.044795873,0.001337139,0.011036777,-3.051962153,-0.000234696,-0.006120144,0.016306099,-0.031763238,0.000971784,10.32504527,-0.089505087,-0.995986306,0.000343884,-4.061146491,0.000199376,-3.921305392,3.83E-05,0.236934973,0.003284038
1701864344,-4.061146491,-3.921305392,0.236934973,-0.005487294,0.000422467,0.998978076,-0.044861058,0.001336483,0.010925685,-3.051831754,-0.000259574,-0.013788064,0.016227313,-0.027480909,0.00100121,10.31541926,-0.089635064,-0.995974614,0.000351739,-4.060953526,0.000192966,-3.921266921,3.85E-05,0.240247807,0.003312834
1701864344,-4.060953526,-3.921266921,0.240247807,-0.005403182,0.000425467,0.998975619,-0.044925915,0.001335626,0.010757273,-3.051702067,-0.000281253,-0.020913447,0.016148257,-0.022962103,0.001029521,10.30498355,-0.089764385,-0.995962962,0.000364577,-4.060766982,0.000186544,-3.921228252,3.87E-05,0.243589003,0.003341196
