timestep,x,y,z,qx,qy,qz,qw,roll,yaw,pitch,roll_a,pitch_a,yaw_a,acc_x,acc_y,acc_z,c_x,c_y,c_z,x_next,x_artis,y_next,y_artis,z_next,z_artis
1701865302.831409,-4.108913258505274,-3.9230949746404975,0.0667643697685596,0.0261475464878036,0.0009610397882624,0.9989839690380315,-0.0366934847107049,1.2391863565479509e-06,-0.0523363764634396,-3.0681640875751865,-5.178532533728084e-06,-0.9905558223450472,3.709972523040894e-07,-1.2177578187153322,0.0017777404610994,9.969352432342932,-0.0732621483231922,-0.9973053291646212,0.0038390158787091,-4.10814056923838,0.0007726892668946661,-3.923038138306652,5.6836333845566855e-05,0.0660825361733282,-0.0006818335952313986
1701865302.8750677,-4.10814056923838,-3.923038138306652,0.0660825361733282,0.0319014156272451,0.0011723647914951,0.9988167821141744,-0.0366873412617918,1.2014620676860378e-06,-0.0638567495964759,-3.068164098590906,-4.768971123300694e-06,-1.4320992655324571,3.805624668498301e-07,-1.1257770842674149,0.0012021606558866,9.888563998182285,-0.0732130640938945,-0.9973053291038732,0.0046827115007123,-4.107138540764436,0.0010020284739438168,-3.922964431535467,7.370677118512248e-05,0.065180300970314,-0.00090223520301419
1701865302.92185,-4.107138540764436,-3.922964431535467,0.065180300970314,0.039421328310846,0.0014485599207809,0.9985482579213892,-0.0366774747020968,1.1680624289537273e-06,-0.0789163433487357,-3.068164113232979,-4.28169476942832e-06,-1.8720749733742903,4.024099734168247e-07,-0.9349439951118206,0.0010963325735055,9.83195070575476,-0.0731342486250391,-0.997305329047266,0.0057846635144693,-4.107609201860347,-0.00047066109591131777,-3.922998436033928,-3.40044984610266e-05,0.0655954211001413,0.00041512012982729274
1701865302.9642956,-4.107609201860347,-3.922998436033928,0.0655954211001413,0.0358849332803258,0.0013187269911286,0.9986816799858812,-0.0366801660733367,1.4500890655383597e-06,-0.0718337553101133,-3.068168537751915,-6.359398791152564e-06,0.8804314948884969,-0.0005496008387176,15.094195606347784,-0.0118218802804965,11.255201733698788,-0.0731689748923789,-0.9973056527519106,0.005266507598392,-4.107830552330189,-0.00022135046984139706,-3.923014721087149,-1.6285053221043455e-05,0.0657965987474887,0.00020117764734739474
1701865302.9843132,-4.107830552330189,-3.923014721087149,0.0657965987474887,0.0341926403313879,0.0012565432314324,0.9987410523837674,-0.036682349020212,1.3931474948831269e-06,-0.0684448010300572,-3.0681685287774174,-7.000152707495897e-06,0.4212771450131105,5.139720676472014e-07,-3.553643572903391,0.013622445583066,6.91682958387515,-0.0731864066671639,-0.9973056527389338,0.0050184553517702,-4.107815097365274,1.5454964914951574e-05,-3.9230135887919895,1.1322951594117114e-06,0.0657816245845235,-1.4974162965197824e-05
1701865302.9974034,-4.107815097365274,-3.9230135887919895,0.0657816245845235,0.0343103981362196,0.0012608337653722,0.9987370138879688,-0.0366822023342857,1.323887647824869e-06,-0.0686806114544892,-3.06816852327816,-8.562773311955763e-06,-0.0293133042048619,7.218224635828322e-07,-0.8968017264257149,0.0009012181542742,10.06740203933951,-0.0731852270274106,-0.9973056526602452,0.0050356446328793,-4.107562610219938,0.0002524871453353228,-3.922995020551159,1.8568240830685312e-05,0.0655515861591167,-0.00023003842540679498
1701865303.0080824,-4.107562610219938,-3.922995020551159,0.0655515861591167,0.0362269917350846,0.0013312005164472,0.9986693303415878,-0.0366797166032639,1.2700141795943516e-06,-0.0725187729277705,-3.068168523487297,-6.698778527901046e-06,-0.4771177216868902,5.928654209521577e-07,-0.8973645392664125,0.0008001217422298,10.000695434162214,-0.0731653652543875,-0.9973056525901788,0.0053164498370848,-4.107678651839816,-0.00011604161987754935,-3.9230035182733256,-8.497722166822541e-06,0.06565369750148,0.00010211134236329245
1701865303.0209768,-4.107678651839816,-3.9230035182733256,0.06565369750148,0.0353464049547898,0.0012988630252682,0.9987008901496366,-0.0366807391683568,1.2900254506771848e-06,-0.0707552810622262,-3.0681687962254607,6.088882211415594e-08,0.219217563391369,-3.409740445080927e-05,4.707738224061902,-5.3511670974175536e-05,10.54305142082148,-0.0731743534406253,-0.9973056726578092,0.0051874158404071,-4.107693579942037,-1.4928102221034578e-05,-3.923004618903733,-1.100630407258052e-06,0.0656666223709075,1.2924869427499708e-05
1701865303.0296674,-4.107693579942037,-3.923004618903733,0.0656666223709075,0.0352328327371442,0.0012946721862304,0.9987049032772144,-0.03668088727521,1.2508988211089073e-06,-0.0705278401818683,-3.068168793276551,-4.83790931755212e-06,0.0282728964538983,3.2974143068241065e-07,-0.571340977835769,0.0014291849183465,9.026359635633446,-0.0731755340194483,-0.9973056726652672,0.0051707340530849,-4.107703960246831,-1.038030479438845e-05,-3.9230053840170185,-7.651132856167919e-07,0.0656751586775904,8.536306682904726e-06
1701865303.0498734,-4.107703960246831,-3.9230053840170185,0.0656751586775904,0.0351538207213274,0.0012917582699474,0.9987076875762024,-0.0366809899738118,1.226975197732917e-06,-0.0703696105730048,-3.068168791464208,-2.9580579424062427e-06,0.01966932826826,2.0036226647475889e-07,0.9983282943028708,0.000616143913838,9.977681479622902,-0.073176352872229,-0.9973056726702264,0.0051591317202136,-4.10771222784664,-8.26759980832037e-06,-3.923005993362384,-6.093453657207704e-07,0.065681927826513,6.7691489226001655e-06
1701865303.0633764,-4.10771222784664,-3.923005993362384,0.065681927826513,0.035090885586962,0.0012894375841744,0.9987099008656746,-0.0366810715807724,1.2085720487934268e-06,-0.0702435768958056,-3.068168790107694,-2.27582703087929e-06,0.0156670915487807,1.491310401112047e-07,0.8577026237149187,0.0005605756272518,9.798487922555536,-0.0731770037106842,-0.9973056726768056,0.0051498907358228,-4.107718835406218,-6.607559578597488e-06,-3.923006480337835,-4.869754506309221e-07,0.06568733582668,5.4080001670037126e-06
1701865303.072133,-4.107718835406218,-3.923006480337835,0.06568733582668,0.0350405843602271,0.0012875829158143,0.9987116669935048,-0.036681136691542,1.19416761172817e-06,-0.070142844049095,-3.068168789054138,-1.7814124792876548e-06,0.0125219763931379,1.1560015183785583e-07,0.840704839016334,0.000516729371486,9.793808322095533,-0.0731775230292883,-0.9973056726825028,0.0051425050898285,-4.107724116825606,-5.2814193880479365e-06,-3.923006869557911,-3.89220076169039e-07,0.065691658257171,4.322430491005003e-06
1701865303.083253,-4.107724116825606,-3.923006869557911,0.065691658257171,0.0350003768393423,0.0012861005581789,0.9987130768968964,-0.0366811886611104,1.1829413897184477e-06,-0.0700623249180231,-3.0681687882406066,-1.388434255166261e-06,0.0100092342378245,8.898420453751682e-08,0.8274740489603862,0.0004761812819888,9.792540795473498,-0.0731779375755671,-0.9973056726875246,0.0051366017434231,-4.1077283384048,-4.221579193774971e-06,-3.923007180652802,-3.1109489118108513e-07,0.0656951139190927,3.4556619216974394e-06
1701865303.0938132,-4.1077283384048,-3.923007180652802,0.0656951139190927,0.0349682367474252,0.0012849157703097,0.9987142027451142,-0.0366812301515371,1.1742536068881051e-06,-0.069997961622032,-3.068168787618798,-1.0745589687788145e-06,0.0080009222304236,6.767684450066722e-08,0.8154638486341959,0.000438989974008,9.791549230976528,-0.0731782685752915,-0.9973056726920664,0.0051318831385304,-4.107731712966576,-3.3745617757929836e-06,-3.923007429310598,-2.486577956872793e-07,0.0656978774982567,2.7635791639973872e-06
1701865303.1054878,-4.107731712966576,-3.923007429310598,0.0656978774982567,0.0349425444890172,0.0012839688124199,0.9987151019849309,-0.0366812632818333,1.167593675381391e-06,-0.0699465107293199,-3.0681687871503387,-8.238164837299462e-07,0.0063957972456953,5.0602198869453594e-08,0.8045132825732644,0.0004046884714232,9.790737744805028,-0.0731785329242035,-0.9973056726962752,0.0051281114351605,-4.1077344106034985,-2.697636922732727e-06,-3.923007628069541,-1.9875894308185593e-07,0.0657000884962701,2.2109980133966367e-06
1701865303.113792,-4.1077344106034985,-3.923007628069541,0.0657000884962701,0.0349220055033614,0.0012832119339507,0.9987158203822318,-0.036681289740157,1.1625537325972503e-06,-0.0699053797392901,-3.0681687868046743,-6.235068857747995e-07,0.0051129428248524,3.690715572821902e-08,0.794517750373752,0.000373218753802,9.79007041654683,-0.0731787440825997,-0.9973056727002626,0.005125096523032,-4.107736567257078,-2.15665357927719e-06,-3.923007786950445,-1.588809039887451e-07,0.0657018583262569,1.7698299868001977e-06
1701865303.1252007,-4.107736567257078,-3.923007786950445,0.0657018583262569,0.0349055850578691,0.0012826069683369,0.9987163944202702,-0.0366813108722689,1.1588079749603102e-06,-0.0698724964927162,-3.0681687865574645,-4.634845649058143e-07,0.0040876759712587,2.5910832960999585e-08,0.7853856166586376,0.0003442781592261,9.789519307103513,-0.0731789127806648,-0.9973056727041136,0.0051226864471238,-4.107738291574727,-1.7243176495540524e-06,-3.923007913962151,-1.2701170604145773e-07,0.0657032759737454,1.4176474884969315e-06
1701865303.1356318,-4.107738291574727,-3.923007913962151,0.0657032759737454,0.0348924561123229,0.0012821234099099,0.9987168531973396,-0.0366813277515253,1.156096144984373e-06,-0.0698462047602218,-3.0681687863893057,-3.356451268571309e-07,0.0032682929562578,1.7069723896947144e-08,0.7770354808505096,0.0003175815326629,9.78906210143216,-0.0731790475765856,-0.997305672707894,0.0051207597521354,-4.107739670390113,-1.3788153854221719e-06,-3.9230080155055136,-1.0154336260725927e-07,0.0657044125146423,1.1365408969093993e-06
1701865303.1480222,-4.107739670390113,-3.9230080155055136,0.0657044125146423,0.0348819576379854,0.0012817368764397,0.9987172199312322,-0.0366813412343708,1.1542103242561403e-06,-0.0698251807695265,-3.0681687862847222,-2.335168844246503e-07,0.0026134664467277,9.950047040644912e-09,0.7693944759464014,0.000293129635294,9.788680958692533,-0.0731791552990254,-0.9973056727116546,0.005119219361926,-4.107740773103075,-1.102712961831287e-06,-3.9230080966962655,-8.119075189938485e-08,0.0657053247218361,9.122071937955889e-07
1701865303.156855,-4.107740773103075,-3.9230080966962655,0.0657053247218361,0.0348735612981743,0.0012814278801272,0.9987175131537944,-0.0366813520044,1.1529844283627697e-06,-0.0698083664784578,-3.068168786231366,-1.5192691895639144e-07,0.0020901638594651,4.205259884670626e-09,0.7623980051574861,0.0002705346043791,9.78836159644723,-0.0731792413984531,-0.9973056727154348,0.0051179876867039,-4.107741655180093,-8.820770185380411e-07,-3.923008161623057,-6.49267914987206e-08,0.0657060579447419,7.332229057938067e-07
1701865303.1694086,-4.107741655180093,-3.923008161623057,0.0657060579447419,0.0348668448143431,0.001281180845173,0.9987177476606316,-0.0366813606073876,1.1522857640248443e-06,-0.0697949162370221,-3.0681687862193825,-8.674620941604456e-08,0.0016719829836814,-4.4116930191160506e-10,0.7559877081028976,0.0002498276844664,9.788092574588775,-0.0731793102264597,-0.9973056727192656,0.0051170027118278,-4.107742360951835,-7.05771741493777e-07,-3.923008213553665,-5.193060781394365e-08,0.0657066484086492,5.904639073101015e-07
1701865303.1794794,-4.107742360951835,-3.923008213553665,0.0657066484086492,0.0348614706772335,0.0012809833225302,0.9987179352669132,-0.0366813674791682,1.1520083288934072e-06,-0.0697841541539178,-3.0681687862409044,-3.4674181327749775e-08,0.00133782132501,-4.210207579765283e-09,0.7501115042387412,0.0002307822594142,9.787864711425186,-0.0731793652580508,-0.9973056727231712,0.0051162148715291,-4.10774292584896,-5.648971255212132e-07,-3.923008255099815,-4.1546150075788546e-08,0.0657071250509549,4.7664230569399724e-07
1701865303.1912951,-4.10774292584896,-3.923008255099815,0.0657071250509549,0.034857169130751,0.0012808253622518,0.998718085409379,-0.0366813729678425,1.1520674425847896e-06,-0.0697755400198406,-3.06816878628965,6.92586464503472e-09,0.0010708124210905,-7.278333485200391e-09,0.7447225233090892,0.0002131837139136,9.78767062743914,-0.0731794092687041,-0.997305672727171,0.0051155845500404,-4.107743378189004,-4.5234004364402836e-07,-3.923008288348896,-3.32490812660069e-08,0.0657075109876653,3.859367103953293e-07
1701865303.2016945,-4.107743378189004,-3.923008288348896,0.0657075109876653,0.0348537245712447,0.0012806990118106,0.9987182056261674,-0.0366813773514761,1.1523954400772934e-06,-0.0697686420706116,-3.0681687863606006,4.0158087100625535e-08,0.0008574755916462,-9.786373439564188e-09,0.7397781337383578,0.0001970994248754,9.787504382179575,-0.0731794444754926,-0.9973056727312796,0.00511508008425,-4.107743740604462,-3.6241545853243906e-07,-3.9230083149692287,-2.6620332604920804e-08,0.0657078246846895,3.1369702420402934e-07
1701865303.2146697,-4.107743740604462,-3.9230083149692287,0.0657078246846895,0.0348509646769105,0.0012805979151452,0.9987183019394624,-0.0366813808522149,1.1529382760387782e-06,-0.0697631152177265,-3.0681687864497498,6.670675073005805e-08,0.0006870362900977,-1.1847010360619031e-08,0.7352403011584637,0.0001821993766085,9.787361179262856,-0.0731794726496254,-0.997305672735509,0.0051146761673239,-4.107744031184153,-2.905796909757896e-07,-3.923008336294204,-2.132497511908582e-08,0.0657080808933858,2.5620869630038623e-07
1701865303.2258732,-4.107744031184153,-3.923008336294204,0.0657080808933858,0.0348487517191776,0.0012805169921615,0.998718379160787,-0.0366813836475459,1.153652757369087e-06,-0.0697586836485795,-3.068168786553896,8.79138897255001e-08,0.0005508829146212,-1.355004856536796e-08,0.7310740304197612,0.0001685973693711,9.787237141373245,-0.0731794952062401,-0.9973056727398688,0.0051143525726972,-4.1077442643854125,-2.3320125919212842e-07,-3.923008353389523,-1.7095318938231685e-08,0.0657082913978445,2.1050445869752465e-07
1701865303.2377625,-4.1077442643854125,-3.923008353389523,0.0657082913978445,0.0348469756183413,0.0012804521826022,0.9987184411346562,-0.0366813858792857,1.154504389181474e-06,-0.0697551269197342,-3.06816878667048,1.0485517564885821e-07,0.0004421325918237,-1.4967436845359016e-08,0.7272481086858514,0.0001559805677752,9.787129121410418,-0.0731795132760629,-0.9973056727443662,0.0051140931342767,-4.107744451763153,-1.8737774087895787e-07,-3.923008367106936,-1.3717412983282884e-08,0.0657084656118022,1.742139577043389e-07
1701865303.2462003,-4.107744451763153,-3.923008367106936,0.0657084656118022,0.0348455483931049,0.0012804002413023,0.9987184909330994,-0.036681387660756,1.155465599035244e-06,-0.0697522688416375,-3.068168786797458,1.183866819756516e-07,0.0003552841758526,-1.6156458626214333e-08,0.7237336590803733,0.0001444519699437,9.787034561252256,-0.0731795277626228,-0.9973056727490068,0.0051138849312859,-4.107744602552549,-1.5078939519241885e-07,-3.9230083781272,-1.102026425670033e-08,0.0657086110554618,1.4544365960211803e-07
1701865303.2555246,-4.107744602552549,-3.9230083781272,0.0657086110554618,0.0348443997244254,0.0012803585745705,0.9987185310109864,-0.0366813890825123,1.1565143628528951e-06,-0.0697499685948371,-3.0681687869331964,1.2919455030729992e-07,0.0002859408529213,-1.7163010897370513e-08,0.7205047326327649,0.0001338488809875,9.786951371877336,-0.0731795393879323,-0.9973056727537958,0.0051137176368013,-4.107744724134733,-1.2158218432034573e-07,-3.9230083869944017,-8.867201639617406e-09,0.0657087337363832,1.2268092139389175e-07
1701865303.2610877,-4.107744724134733,-3.9230083869944017,0.0657087337363832,0.0348434734098576,0.0012803251094066,0.9987185633300828,-0.0366813902169207,1.1576330893353478e-06,-0.0697481136295069,-3.06816878707639,1.3782697171530446e-07,0.0002305884605776,-1.802376267215304e-08,0.7175376900709605,0.000124015967893,9.786877842188405,-0.0731795487289753,-0.9973056727587366,0.0051135829970438,-4.107744822409015,-9.827428204545186e-08,-3.923008394143399,-7.148997394068601e-09,0.0657088384537486,1.0471736540396126e-07
1701865303.2712014,-4.107744822409015,-3.923008394143399,0.0657088384537486,0.0348427245296373,0.0012802981889627,0.9987185894581456,-0.0366813911218132,1.1588077108725867e-06,-0.0697466139902905,-3.068168787225995,1.4471970545270756e-07,0.0001864183080336,-1.876788162320516e-08,0.7148106161623147,0.0001150753642939,9.786812566158016,-0.073179556246852,-0.997305672763832,0.0051134744151758,-4.107744902090355,-7.968133974856073e-08,-3.923008399921745,-5.778345801843443e-09,0.0657089290414233,9.058767469483087e-08
1701865303.287007,-4.107744902090355,-3.923008399921745,0.0657089290414233,0.0348421171817514,0.0012802764890162,0.998718610648082,-0.0366813918434081,1.1600270018518963e-06,-0.0697453977805961,-3.0681687873811767,1.5022422087908561e-07,0.0001511855324695,-1.9418870822054626e-08,0.712304008543815,0.0001067467315587,9.786754381290834,-0.0731795623100622,-0.997305672769084,0.0051133866187068,-4.10774496694713,-6.485677506162801e-08,-3.923008404607221,-4.6854760071823875e-09,0.0657090085621211,7.952069780436943e-08
1701865303.3011734,-4.10774496694713,-3.923008404607221,0.0657090085621211,0.0348416226715806,0.0012802589511795,0.9987186279012016,-0.036681392418642,1.1612819806200528e-06,-0.0697444075372067,-3.0681687875412686,1.5461801271980172e-07,0.0001230959387926,-1.9995313485790437e-08,0.7099995286738391,9.91629891618896e-05,9.78670232443208,-0.0731795672131056,-0.9973056727744952,0.0051133153935976,-4.107745019991164,-5.304403405403946e-08,-3.9230084084218375,-3.814616622577205e-09,0.0657090794625145,7.090039340351684e-08
1701865303.3063226,-4.107745019991164,-3.9230084084218375,0.0657090794625145,0.0348412180650544,0.0012802447295443,0.9987186420177488,-0.0366813928770353,1.1625654761360532e-06,-0.0697435973328577,-3.068168787705737,1.581249988630838e-07,0.0001007155069266,-2.051219183938019e-08,0.7078807347447764,9.218900949974862e-05,9.786655591903235,-0.0731795711913471,-0.997305672780066,0.0051132573717992,-4.1077450636296025,-4.363843864041428e-08,-3.923008411543031,-3.1211935258568246e-09,0.0657091436971455,6.423463100313498e-08
1701865303.3214092,-4.1077450636296025,-3.923008411543031,0.0657091436971455,0.0348408850322224,0.0012802331480255,0.9987186536372848,-0.0366813932421804,1.1638717641533804e-06,-0.0697429304603972,-3.068168787874156,1.6092409839160178e-07,8.289809601326268e-05,-2.0981478570610506e-08,0.7059325828068035,8.569476378418905e-05,9.78661351024601,-0.0731795744328909,-0.9973056727857986,0.0051132098614209,-4.107745099786314,-3.6156711402668407e-08,-3.923008414112618,-2.569586765588383e-09,0.0657092028274105,5.913026498993723e-08
1701865303.3313134,-4.107745099786314,-3.923008414112618,0.0657092028274105,0.0348406089229409,0.0012802236662593,0.998718663270956,-0.0366813935329339,1.1651962583060962e-06,-0.0697423775817727,-3.068168788046184,1.6315603303389225e-07,6.872766233982813e-05,-2.1412610311322357e-08,0.7041409436198656,7.982558956527436e-05,9.786575512746731,-0.0731795770880752,-0.9973056727916928,0.0051131707109676,-4.107745129998898,-3.0212584434252676e-08,-3.923008416243937,-2.131319121190245e-09,0.0657092581006387,5.527322820275682e-08
1701865303.3413389,-4.107745129998898,-3.923008416243937,0.0657092581006387,0.0348403780282024,0.0012802158523718,0.9987186713272797,-0.0366813937643654,1.1665353083625972e-06,-0.0697419152487877,-3.068168788221548,1.6493656805009674e-07,5.747204517258393e-05,-2.1813327155368315e-08,0.7024933808241929,7.432266459678025e-05,9.786541118465,-0.073179579277051,-0.9973056727977498,0.0051131382008896,-4.107745155496235,-2.549733668644194e-08,-3.9230084180275737,-1.7836367938173225e-09,0.0657093105132609,5.241262220068155e-08
1701865303.3562264,-4.107745155496235,-3.9230084180275737,0.0657093105132609,0.0348401829896463,0.0012802093611845,0.9987186781327528,-0.0366813939485198,1.1678859851515657e-06,-0.0697415247205986,-3.06816878840003,1.6635487501195977e-07,4.854607922757511e-05,-2.2189618029554395e-08,0.7009779785077325,6.933844861687448e-05,9.786509918405494,-0.0731795810958475,-0.99730567280397,0.0051131109568343,-4.1077451772604645,-2.1764229529708246e-08,-3.923008419535925,-1.508351221701787e-09,0.0657093608612763,5.034801539571809e-08
1701865303.371378,-4.1077451772604645,-3.923008419535925,0.0657093608612763,0.034840016327698,0.0012802039168198,0.9987186839483192,-0.036681394095023,1.169245953519616e-06,-0.0697411910187773,-3.0681687885814557,1.6748441171266406e-07,4.148206329807793e-05,-2.254640263529409e-08,0.6995841411568777,6.475603615603205e-05,9.786481561678608,-0.0731795826212125,-0.997305672810354,0.0051130878803702,-4.107745196076512,-1.8816047386849277e-08,-3.923008420826849,-1.2909242563807766e-09,0.0657094097805668,4.891929050732102e-08
1701865303.3861427,-4.107745196076512,-3.923008420826849,0.0657094097805668,0.0348398720643989,0.0012801992987888,0.998718688982532,-0.036681394211569,1.1706133529941848e-06,-0.0697409021719985,-3.0681687887656843,1.683838841306718e-07,3.590618807480408e-05,-2.2887613174858803e-08,0.6983021535552939,6.046200201168075e-05,9.78645574586052,-0.0731795839144858,-0.997305672816902,0.0051130680935952,-4.10774521257169,-1.649517766821873e-08,-3.923008421946588,-1.1197389682138237e-09,0.0657094577791018,4.799853499382056e-08
1701865303.4011552,-4.10774521257169,-3.923008421946588,0.0657094577791018,0.0348397454219167,0.0012801953308618,0.9987186934020724,-0.0366813943043067,1.171986684410512e-06,-0.0697406486122827,-3.0681687889526046,1.6909796867599554e-07,3.151969664212464e-05,-2.3216261965072218e-08,0.6971227486479433,5.661696880545427e-05,9.786432209256148,-0.0731795850246918,-0.9973056728236136,0.0051130508948415,-4.107745227247327,-1.467563759405266e-08,-3.923008422932096,-9.85507675466124e-10,0.0657095052626682,4.7483566398276444e-08
1701865303.411373,-4.107745227247327,-3.923008422932096,0.0657095052626682,0.0348396325816692,0.0012801918721979,0.9987186973401566,-0.036681394378151,1.1733647641543668e-06,-0.0697404226926234,-3.068168789142127,1.696656927065945e-07,2.8083795192655452e-05,-2.3534955711593624e-08,0.6960379314872758,5.297628468424398e-05,9.78641072330837,-0.0731795859910123,-0.99730567283049,0.0051130357233301,-4.107745240504077,-1.3256749475942797e-08,-3.9230084238129046,-8.808087592626634e-10,0.0657095525554222,4.729275400461308e-08
1701865303.42099,-4.107745240504077,-3.9230084238129046,0.0657095525554222,0.0348395304916934,0.0012801888102246,0.998718700903254,-0.03668139443703,1.1747466320803086e-06,-0.0697402183012281,-3.068168789334179,1.701146893356925e-07,2.540764313443764e-05,-2.3845567518480783e-08,0.695039810876614,4.973229886997448e-05,9.78639108824482,-0.0731795868447631,-0.9973056728375306,0.0051130221308502,-4.107745252662113,-1.2158036355458535e-08,-3.923008424612617,-7.99712296384314e-10,0.0657095999163102,4.736088800305627e-08
1701865303.431017,-4.107745252662113,-3.923008424612617,0.0657095999163102,0.0348394367127993,0.0012801860549787,0.9987187041764576,-0.0366813944840829,1.1761315353035114e-06,-0.0697400305534306,-3.068168789528704,1.7047058826997437e-07,2.3338697948905104e-05,-2.4149807125449212e-08,0.6941216848374587,4.664456274023836e-05,9.786373127757743,-0.0731795876109714,-0.9973056728447356,0.0051130097591971,-4.107745263977295,-1.1315181680515707e-08,-3.923008425350092,-7.374749699806671e-10,0.0657096475521836,4.763587339862152e-08
1701865303.4463644,-4.107745263977295,-3.923008425350092,0.0657096475521836,0.0348393492954985,0.0012801835345524,0.9987187072277752,-0.0366813945218188,1.1775188596536543e-06,-0.0697398555452293,-3.068168789725655,1.707505429021951e-07,2.175505441631128e-05,-2.4448844017164943e-08,0.6932768827231411,4.38823072372534e-05,9.786356686195408,-0.0731795883096406,-0.9973056728521053,0.0051129983220683,-4.107745274654077,-1.0676782125074169e-08,-3.9230084260404015,-6.903095872701215e-10,0.0657096956282796,4.807609599311036e-08
1701865303.4513724,-4.107745274654077,-3.9230084260404015,0.0657096956282796,0.0348392666817278,0.0012801811914784,0.9987187101115604,-0.0366813945522433,1.1789081196423737e-06,-0.0697396901564816,-3.068168789924996,1.709704672177552e-07,2.0559271945090725e-05,-2.4743746260448213e-08,0.6924996110155233,4.134402690744553e-05,9.786341625057108,-0.0731795889567577,-0.9973056728596392,0.0051129875906514,-4.107745284855827,-1.0201750555438593e-08,-3.9230084266955862,-6.551847953062406e-10,0.0657097442765909,4.8648311309906767e-08
1701865303.4624555,-4.107745284855827,-3.9230084266955862,0.0657097442765909,0.0348391876262669,0.0012801789798309,0.9987187128712522,-0.0366813945769591,1.1802989327346153e-06,-0.0697395318935384,-3.068168790126696,1.7114309432360185e-07,1.9673471941284463e-05,-2.5035368389405594e-08,0.6917845527834423,3.893068464466468e-05,9.786327820712795,-0.0731795895650992,-0.997305672867338,0.0051129773820828,-4.107745294713083,-9.857255456324765e-09,-3.923008427325271,-6.296847487874402e-10,0.0657097936025526,4.93259616901609e-08
1701865303.478452,-4.107745294713083,-3.923008427325271,0.0657097936025526,0.0348391111338964,0.0012801768628984,0.9987187155415688,-0.0366813945972474,1.1816909806186309e-06,-0.0697393787633951,-3.0681687903307315,1.7127636308833076e-07,1.9035419904305344e-05,-2.5324262169325936e-08,0.691126472346215,3.6815790395214494e-05,9.786315162608783,-0.0731795901448777,-0.9973056728752014,0.0051129675501994,-4.107745304330128,-9.617044938181607e-09,-3.923008427937141,-6.118701101343049e-10,0.0657098436903859,5.0087833311507346e-08
1701865303.4809582,-4.107745304330128,-3.923008427937141,0.0657098436903859,0.0348390364092591,0.0012801748113489,0.9987187181502554,-0.0366813946141321,1.1830840232534178e-06,-0.0697392291732881,-3.068168790537084,1.7137995527438673e-07,1.8595362332028568e-05,-2.5611068095979453e-08,0.6905210712043316,3.476688488869735e-05,9.786303551185949,-0.0731795907042538,-0.9973056728832296,0.0051129579782055,-4.10774531379028,-9.460152661233678e-09,-3.9230084285373383,-6.00197225253396e-10,0.0657098946073636,5.091697768966341e-08
1701865303.502353,-4.10774531379028,-3.9230084285373383,0.0657098946073636,0.0348389628166823,0.0012801728017333,0.9987187207194872,-0.0366813946284312,1.18447785623188e-06,-0.0697390818502331,-3.068168790745738,1.714582726128946e-07,1.8313547889923093e-05,-2.5896100345099548e-08,0.6899638848195593,3.29602871021717e-05,9.78629289682388,-0.07317959124975,-0.997305672891422,0.0051129485727418,-4.107745323160089,-9.369808928738621e-09,-3.9230084291307694,-5.934310820521205e-10,0.0657099464072211,5.1799857500589574e-08
1701865303.5112553,-4.107745323160089,-3.9230084291307694,0.0657099464072211,0.0348388898481524,0.0012801708153142,0.9987187232669856,-0.0366813946407992,1.1858723214802114e-06,-0.069738935776894,-3.06816879095668,1.7151705034570759e-07,1.8158197249648128e-05,-2.6179743785462593e-08,0.689451144798605,3.13012452913306e-05,9.786283118448504,-0.0731795917865799,-0.9973056728997792,0.0051129392592033,-4.107745332492706,-9.332616457413678e-09,-3.9230084297213503,-5.905809175033028e-10,0.0657099991328797,5.2725658603036685e-08
1701865303.5209637,-4.107745332492706,-3.9230084297213503,0.0657099991328797,0.0348388170976858,0.0012801688371201,0.9987187258069132,-0.0366813946517584,1.1872672981268775e-06,-0.0697387901402571,-3.068168791169901,1.71560883740615e-07,1.8103911325278336e-05,-2.6462306271177142e-08,0.6889793941792486,2.969679553665868e-05,9.7862741425314,-0.0731795923189082,-0.9973056729083009,0.005112929977974,-4.107745341830575,-9.337869144587785e-09,-3.923008430312212,-5.90861581883928e-10,0.0657100528186208,5.368574110264923e-08
1701865303.531028,-4.107745341830575,-3.923008430312212,0.0657100528186208,0.0348387442408073,0.0012801668551793,0.9987187283505888,-0.0366813946617268,1.188662676898909e-06,-0.0697386442905355,-3.068168791385393,1.715912091678931e-07,1.8130399618647588e-05,-2.674390244479171e-08,0.6885451056193197,2.832607241192346e-05,9.78626590238032,-0.0731795928500655,-0.9973056729169872,0.0051129206813945,-4.107745351207582,-9.377006726651871e-09,-3.92300843090585,-5.936380276239106e-10,0.0657101074918259,5.467320510210705e-08
1701865303.5420394,-4.107745351207582,-3.92300843090585,0.0657101074918259,0.0348386710182383,0.0012801648599323,0.9987187309070568,-0.0366813946710384,1.190058384804099e-06,-0.0697384977085043,-3.0681687916031484,1.716125145924443e-07,1.822143213657954e-05,-2.7024823150386788e-08,0.6881455501970192,2.696182246819869e-05,9.786258337242185,-0.0731795933827122,-0.9973056729258378,0.0051129113313958,-4.107745360650774,-9.443192006131085e-09,-3.92300843150426,-5.984102102729594e-10,0.0657101631743632,5.5682537303258783e-08
1701865303.5514014,-4.107745360650774,-3.92300843150426,0.0657101631743632,0.0348385972227497,0.0012801628437317,0.9987187334835456,-0.0366813946799599,1.191454349116082e-06,-0.0697383499791707,-3.0681687918231626,1.7162482808387457e-07,1.8364051874675476e-05,-2.730508982752925e-08,0.6877776700733675,2.581209386495287e-05,9.78625139175789,-0.0731795939189748,-0.9973056729348532,0.0051129018975366,-4.107745370181727,-9.530952915781654e-09,-3.923008432109031,-6.047709000256418e-10,0.0657102198836987,5.670933549140056e-08
1701865303.5609949,-4.107745370181727,-3.923008432109031,0.0657102198836987,0.0348385226887675,0.0012801608004745,0.9987187360858314,-0.0366813946887048,1.1928505260240286e-06,-0.0697382007709603,-3.0681687920454315,1.7163173067278698e-07,1.8547889238459425e-05,-2.7584932064776448e-08,0.6874392007227976,2.465111729238034e-05,9.786245015395378,-0.0731795944605525,-0.9973056729440328,0.0051128923555091,-4.107745379817656,-9.635929387741271e-09,-3.923008432721433,-6.124021290077053e-10,0.0657102776337801,5.775008139752291e-08
1701865303.5739353,-4.107745379817656,-3.923008432721433,0.0657102776337801,0.0348384472839552,0.0012801587252762,0.99871873871853,-0.0366813946974435,1.1942468679159738e-06,-0.0697380498188591,-3.068168792269951,1.7163274716903185e-07,1.8764670159340655e-05,-2.786433489543826e-08,0.6871275467230809,2.366145339394459e-05,9.786239161939534,-0.0731795950088035,-0.9973056729533768,0.0051128826858725,-4.107745389572279,-9.754622887214737e-09,-3.923008433342477,-6.210436609421777e-10,0.065710336435746,5.880196590757336e-08
1701865303.586022,-4.107745389572279,-3.923008433342477,0.065710336435746,0.0348383709025752,0.0012801566142372,0.99871874138533,-0.036681394706312,1.1956433420797131e-06,-0.0697378969111192,-3.06816879249672,1.7162971937048837e-07,1.9007773209769787e-05,-2.814342032584608e-08,0.6868406579202225,2.275393889230085e-05,9.786233789155222,-0.0731795955648125,-0.9973056729628856,0.0051128728730987,-4.107745399456523,-9.884244533964193e-09,-3.923008433972969,-6.304921029709476e-10,0.0657103962984915,5.986274549674153e-08
1701865303.5910647,-4.107745399456523,-3.923008433972969,0.0657103962984915,0.0348382934601476,0.0012801544642441,0.9987187440891776,-0.0366813947154195,1.1970399277452836e-06,-0.0697377418785631,-3.068168792725733,1.716241309025955e-07,1.927190648047242e-05,-2.8422285444332443e-08,0.6865766566010512,2.1840940237631623e-05,9.786228858302684,-0.073179596129447,-0.9973056729725588,0.0051128629047867,-4.107745409479091,-1.002256766469145e-08,-3.923008434613549,-6.405800334619016e-10,0.0657104572291181,6.093062659973114e-08
1701865303.606396,-4.107745409479091,-3.923008434613549,0.0657104572291181,0.0348382148891452,0.0012801522728023,0.9987187468324282,-0.0366813947248529,1.1984365956863757e-06,-0.0697375845859624,-3.0681687929569903,1.716149283254913e-07,1.955284986557155e-05,-2.8700876129108024e-08,0.686333467515103,2.1106321241813563e-05,9.786224333882194,-0.0731795967034001,-0.997305672982396,0.0051128527710117,-4.107745419646897,-1.0167806152594494e-08,-3.923008435264729,-6.511799988118128e-10,0.0657105192332968,6.200417869417496e-08
1701865303.6114037,-4.107745419646897,-3.923008435264729,0.0657105192332968,0.0348381351356423,0.0012801500379267,0.9987187496169628,-0.0366813947346817,1.1998333368737758e-06,-0.0697374249253267,-3.06816879319049,1.716046133165936e-07,1.9847217373198283e-05,-2.8979348131314214e-08,0.6861096968084562,2.0327300629213347e-05,9.786220183385508,-0.0731795972872249,-0.9973056729923976,0.005112842463862,-4.107745429965435,-1.0318538024023383e-08,-3.923008435926912,-6.621831971642678e-10,0.0657105823155543,6.308225750095708e-08
1701865303.6222167,-4.107745429965435,-3.923008435926912,0.0657105823155543,0.0348380541565295,0.0012801477580241,0.9987187524442848,-0.0366813947449615,1.2012301315272468e-06,-0.0697372628103264,-3.0681687934262314,1.7159185244854493e-07,2.015231643898936e-05,-2.9257627837537645e-08,0.6859035498228551,1.968897778139033e-05,9.78621637688378,-0.0731795978813638,-0.997305673002564,0.0051128319770004,-4.107745440439061,-1.047362552242248e-08,-3.92300843660042,-6.735079161046542e-10,0.0657106464795045,6.416395020858445e-08
1701865303.635999,-4.107745440439061,-3.92300843660042,0.0657106464795045,0.0348379719173766,0.0012801454318246,0.9987187553155952,-0.0366813947557369,1.2026269690970228e-06,-0.0697370981720119,-3.068168793664212,1.715777921506587e-07,2.04659865010614e-05,-2.95357893829246e-08,0.6857137126922103,1.9104734700416057e-05,9.78621288699113,-0.0731795984861711,-0.9973056730128944,0.0051128213053708,-4.107745451071216,-1.0632155600376336e-08,-3.9230084372855063,-6.85086209983865e-10,0.0657107117280322,6.524852769196343e-08
1701865303.641042,-4.107745451071216,-3.9230084372855063,0.0657107117280322,0.0348378883906895,0.0012801430583169,0.998718758231852,-0.0366813947670432,1.2040238466263012e-06,-0.0697369309553246,-3.0681687939044324,1.7156336704356062e-07,2.0786500866559217e-05,-2.9813892119683655e-08,0.6855389850059537,1.848913688425362e-05,9.786209688491184,-0.0731795991019279,-0.9973056730233892,0.005112810444941,-4.107745461864623,-1.0793407057008153e-08,-3.923008437982373,-6.968665644535577e-10,0.0657107780634389,6.633540670930582e-08
1701865303.6614811,-4.107745461864623,-3.923008437982373,0.0657107780634389,0.0348378035544807,0.0012801406366861,0.9987187611938224,-0.036681394778909,1.2054207490808736e-06,-0.0697367611162325,-3.06816879414689,1.7154708644435358e-07,2.1112488791446805e-05,-3.00918513110608e-08,0.6853779143676815,1.8028119659368803e-05,9.786206758188598,-0.0731795997288612,-0.9973056730340484,0.005112799392474,-4.107745472821417,-1.0956793694560929e-08,-3.923008438691175,-7.088023501466978e-10,0.0657108454875622,6.742412329840963e-08
1701865303.6709116,-4.107745472821417,-3.923008438691175,0.0657108454875622,0.0348377173912162,0.0012801381662892,0.998718764202118,-0.0366813947913564,1.2068176788376364e-06,-0.0697365886196228,-3.0681687943915867,1.7153109705657718e-07,2.14428415266884e-05,-3.0369798142703765e-08,0.6852296798400705,1.750082829858043e-05,9.78620407486289,-0.0731796003671493,-0.9973056730448716,0.0051127881454026,-4.107745483943274,-1.1121857212970099e-08,-3.923008439412039,-7.208638130862255e-10,0.0657109140018672,6.851430499332789e-08
1701865303.6809282,-4.107745483943274,-3.923008439412039,0.0657109140018672,0.0348376298868678,0.0012801356466058,0.9987187672572272,-0.0366813948044043,1.2082146251302092e-06,-0.0697364134374026,-3.0681687946385194,1.715137839329387e-07,2.1776686475233896e-05,-3.0647639100025246e-08,0.6850930138071785,1.709406696970003e-05,9.78620161886538,-0.0731796010169378,-0.9973056730558596,0.0051127767016602,-4.107745495231497,-1.1288222800942549e-08,-3.9230084401450585,-7.330194229382414e-10,0.0657109836075229,6.960565569757993e-08
1701865303.6910124,-4.107745495231497,-3.9230084401450585,0.0657109836075229,0.0348375410302431,0.001280133077223,0.9987187703595404,-0.0366813948180668,1.209611584730596e-06,-0.0697362355471585,-3.068168794887689,1.71496070682687e-07,2.211331759286111e-05,-3.092543262924942e-08,0.6849670870467791,1.6722899909124216e-05,9.786199372251616,-0.0731796016783412,-0.9973056730670116,0.0051127650596035,-4.107745506687091,-1.14555938068861e-08,-3.923008440890308,-7.452496397775121e-10,0.0657110543054618,7.069793890590592e-08
1701865303.702392,-4.107745506687091,-3.923008440890308,0.0657110543054618,0.0348374508124167,0.0012801304578146,0.998718773509368,-0.0366813948323553,1.2110085604922838e-06,-0.0697360549310166,-3.0681687951390955,1.7147871116300334e-07,2.2452170601180506e-05,-3.1203225108780855e-08,0.6848511451091012,1.63032968889381e-05,9.786197318458012,-0.0731796023514504,-0.9973056730783276,0.0051127532179273,-4.107745518310828,-1.162373663987637e-08,-3.923008441647846,-7.575380323032732e-10,0.0657111260964268,7.179096500609106e-08
1701865303.7111814,-4.107745518310828,-3.923008441647846,0.0657111260964268,0.0348373592262376,0.0012801277881127,0.9987187767069596,-0.0366813948472793,1.212405542052599e-06,-0.0697358715746566,-3.068168795392737,1.7146007212341198e-07,2.2792803743107976e-05,-3.1480921484261673e-08,0.6847441457491104,1.6022609104345998e-05,9.786195442197064,-0.0731796030363397,-0.9973056730898084,0.0051127411755733,-4.107745530103287,-1.1792459453374704e-08,-3.923008442417714,-7.698677251255504e-10,0.0657111989810107,7.28845838959824e-08
1701865303.7210662,-4.107745530103287,-3.923008442417714,0.0657111989810107,0.0348372662660266,0.0012801250679117,0.9987187799525132,-0.0366813948628459,1.213802535481321e-06,-0.0697356854667054,-3.068168795648616,1.7144218444818174e-07,2.313485066813976e-05,-3.1758644638023814e-08,0.6846456453227365,1.5661231267202198e-05,9.78619372954442,-0.0731796037330665,-0.997305673101453,0.0051127289317154,-4.1077455420649,-1.1961613033406593e-08,-3.923008443199944,-7.822302805493564e-10,0.0657112729596849,7.397867420044779e-08
1701865303.732989,-4.1077455420649,-3.923008443199944,0.0657112729596849,0.0348371719272227,0.0012801222970395,0.998718783246187,-0.0366813948790616,1.215199531207863e-06,-0.0697354965980293,-3.068168795906729,1.7142311770319885e-07,2.347803298226257e-05,-3.2036281059935995e-08,0.6845546876687826,1.5434093711579947e-05,9.78619216751264,-0.073179604441679,-0.997305673113262,0.0051127164856756,-4.107745554195976,-1.2131075699528537e-08,-3.923008443994559,-7.946150404336549e-10,0.0657113480328258,7.50731408982741e-08
1701865303.746043,-4.107745554195976,-3.923008443994559,0.0657113480328258,0.0348370762062155,0.0012801194753666,0.9987187865881066,-0.0366813948959303,1.2165965360087971e-06,-0.0697353049613982,-3.068168796167078,1.7140488562996852e-07,2.3822114062611573e-05,-3.2313952309184e-08,0.6844709412045192,1.5121952126417623e-05,9.78619074433155,-0.0731796051622126,-0.9973056731252354,0.0051127038369316,-4.107745566496727,-1.230075152847121e-08,-3.9230084448015754,-8.070162316187179e-10,0.0657114242007322,7.616790639874971e-08
1701865303.7512062,-4.107745566496727,-3.9230084448015754,0.0657114242007322,0.0348369791001002,0.0012801166027829,0.998718789978373,-0.0366813949134565,1.2179935426435713e-06,-0.0697351105509951,-3.068168796429662,1.7138576385237384e-07,2.416691826500714e-05,-3.259155655823193e-08,0.6843935883512438,1.4913174326467308e-05,9.786189448990704,-0.0731796058946986,-0.9973056731373728,0.0051126909850504,-4.107745578967292,-1.2470565025068936e-08,-3.923008445621001,-8.194254164095582e-10,0.0657115014636421,7.726290990328621e-08
1701865303.7648594,-4.107745578967292,-3.923008445621001,0.0657115014636421,0.034836880606571,0.0012801136792035,0.9987187934170664,-0.0366813949316426,1.219390550726239e-06,-0.0697349133622022,-3.0681687966944806,1.713665903909147e-07,2.451229647629216e-05,-3.2869145791391715e-08,0.6843222140910662,1.4724089437524556e-05,9.786188271510303,-0.0731796066391594,-0.9973056731496744,0.0051126779296939,-4.107745591607743,-1.2640450464118658e-08,-3.9230084464528434,-8.318425948061758e-10,0.065711579821745,7.835810289513745e-08
1701865303.7713962,-4.107745591607743,-3.9230084464528434,0.065711579821745,0.0348367807238007,0.0012801107045638,0.9987187969042496,-0.0366813949504912,1.2207875653260206e-06,-0.069734713391361,-3.0681687969615346,1.7134804834612934e-07,2.4858129481191754e-05,-3.314676092149584e-08,0.6842564448430625,1.447206183159675e-05,9.786187202640104,-0.0731796073956143,-0.9973056731621402,0.0051126646705992,-4.107745604418109,-1.281036610123465e-08,-3.923008447297104,-8.442606613812131e-10,0.0657116592751909,7.945344590587489e-08
1701865303.7860725,-4.107745604418109,-3.923008447297104,0.0657116592751909,0.0348366794503087,0.0012801076788051,0.9987188004399744,-0.0366813949700047,1.2221845778857824e-06,-0.0697345106355058,-3.0681687972308223,1.7132845014938125e-07,2.5204331149166117e-05,-3.342430271399711e-08,0.6841955888213893,1.4345509526447045e-05,9.786186233805724,-0.0731796081640792,-0.9973056731747704,0.0051126512075409,-4.107745617398372,-1.2980263086603827e-08,-3.923008448153782,-8.566778397778307e-10,0.0657117398240995,8.054890859865438e-08
1701865303.8011746,-4.107745617398372,-3.923008448153782,0.0657117398240995,0.0348365767849438,0.0012801046018889,0.9987188040242804,-0.0366813949901838,1.2235815959650334e-06,-0.0697343050923319,-3.068168797502345,1.7130978445049582e-07,2.555081930227399e-05,-3.3701890276361384e-08,0.6841395248202911,1.412593749761333e-05,9.786185357276269,-0.0731796089445644,-0.9973056731875648,0.0051126375403578,-4.10774563054849,-1.3150118327587279e-08,-3.923008449022874,-8.690919095499794e-10,0.065711821468565,8.164446549385751e-08
1701865303.8109696,-4.10774563054849,-3.923008449022874,0.065711821468565,0.0348364727267653,0.0012801014737775,0.9987188076572,-0.0366813950110302,1.2249786129830472e-06,-0.0697340967599551,-3.0681687977761025,1.7129030651013607e-07,2.5897541699823303e-05,-3.397942054096355e-08,0.6840876288530833,1.400227334749243e-05,9.786184565745335,-0.0731796097370803,-0.9973056732005232,0.0051126236689055,-4.107745643868395,-1.3319904290653994e-08,-3.923008449904375,-8.815010943408197e-10,0.0657119042086624,8.274009739850374e-08
1701865303.8210142,-4.107745643868395,-3.923008449904375,0.0657119042086624,0.0348363672750351,0.0012800982944436,0.998718811338758,-0.0366813950325449,1.2263756290293084e-06,-0.0697338856368973,-3.0681687980520937,1.7127084189121956e-07,2.624444782639115e-05,-3.425694397872254e-08,0.6840396639184442,1.3891546559553406e-05,9.78618385264754,-0.0731796105416347,-0.997305673213646,0.0051126095930759,-4.107745657357994,-1.34895996595219e-08,-3.9230084507982776,-8.939027296150925e-10,0.0657119880444513,8.383578890824861e-08
1701865303.8310366,-4.107745657357994,-3.9230084507982776,0.0657119880444513,0.0348362604291774,0.0012800950638691,0.9987188150689748,-0.0366813950547285,1.227772649639285e-06,-0.0697336717220058,-3.06816879833032,1.712520615967085e-07,2.6591497227701887e-05,-3.4534500474295554e-08,0.6839954202930194,1.371157362262838e-05,9.78618321187937,-0.0731796113582327,-0.997305673226933,0.0051125953127902,-4.1077456710171845,-1.3659190223336282e-08,-3.923008451704576,-9.062981476404275e-10,0.065712072975978,8.493152670041582e-08
1701865303.8446412,-4.1077456710171845,-3.923008451704576,0.065712072975978,0.0348361521887101,0.001280091782032,0.9987188188478662,-0.0366813950775817,1.2291696665881508e-06,-0.069733455014315,-3.06816879861078,1.7123226492356797e-07,2.693866669434825e-05,-3.481198966692534e-08,0.6839543568857928,1.365132135710025e-05,9.786182637750166,-0.0731796121868799,-0.997305673240384,0.0051125808279694,-4.107745684845846,-1.3828661771242423e-08,-3.9230084526232583,-9.186824634355162e-10,0.0657121590032797,8.602730169893213e-08
1701865303.8511753,-4.107745684845846,-3.9230084526232583,0.0657121590032797,0.034836042553279,0.0012800884489232,0.9987188226754444,-0.0366813951011048,1.2305666876820448e-06,-0.0697332355131155,-3.068168798893474,1.7121343462913393e-07,2.72859243081228e-05,-3.50895300007119e-08,0.6839164911010469,1.349275477157453e-05,9.786182125198572,-0.0731796130275791,-0.9973056732539992,0.0051125661385696,-4.107745698843854,-1.3998008085991387e-08,-3.9230084535543193,-9.310610060708768e-10,0.0657122461263851,8.712310539671364e-08
1701865303.8663175,-4.107745698843854,-3.9230084535543193,0.0657122461263851,0.0348359315225751,0.0012800850645274,0.9987188265517196,-0.0366813951252985,1.231963704777901e-06,-0.0697330132177886,-3.068168799178402,1.7119359761573404e-07,2.7633258865417147e-05,-3.5367004716106366e-08,0.6838812909224332,1.3452201048879296e-05,9.786181669353022,-0.0731796138803342,-0.9973056732677786,0.0051125512445373,-4.107745713011068,-1.4167214068550038e-08,-3.923008454497746,-9.434266701191518e-10,0.0657123343453172,8.821893210386733e-08
1701865303.8813725,-4.107745713011068,-3.923008454497746,0.0657123343453172,0.0348358190963822,0.0012800816288405,0.9987188304766988,-0.0366813951501629,1.2333607257283984e-06,-0.0697327881279013,-3.0681687994655644,1.711747340904517e-07,2.7980647222805403e-05,-3.564453202105955e-08,0.6838488150148366,1.3311716573906029e-05,9.786181265946556,-0.073179614745147,-0.9973056732817224,0.0051125361458486,-4.107745727347348,-1.4336279718918377e-08,-3.923008455453529,-9.5578300829402e-10,0.0657124236600935,8.931477629703366e-08
1701865303.8924584,-4.107745727347348,-3.923008455453529,0.0657124236600935,0.0348357052745046,0.0012800781418521,0.9987188344503888,-0.0366813951756982,1.2347577442411677e-06,-0.0697325602430621,-3.068168799754961,1.7115508925587378e-07,2.8328084271585475e-05,-3.5922007648263346e-08,0.6838186046744132,1.326086801776332e-05,9.786180910845722,-0.073179615622019,-0.9973056732958302,0.0051125208424685,-4.107745741852547,-1.4505198819847465e-08,-3.923008456421656,-9.681269119710123e-10,0.0657125140707278,9.041063429859886e-08
1701865303.902902,-4.107745741852547,-3.923008456421656,0.0657125140707278,0.0348355900567986,0.0012800746035572,0.9987188384727936,-0.0366813952019049,1.2361547605966434e-06,-0.0697323295629828,-3.0681688000465903,1.711354842488648e-07,2.8675557130491595e-05,-3.6199481643243983e-08,0.68379057527659,1.3217067723228422e-05,9.786180600410155,-0.0731796165109527,-0.997305673310102,0.0051125053343764,-4.107745756526511,-1.4673964265909945e-08,-3.9230084574021182,-9.804623779530175e-10,0.0657126055772311,9.150650330524979e-08
1701865303.921267,-4.107745756526511,-3.9230084574021182,0.0657126055772311,0.034835473443162,0.0012800710139549,0.9987188425439164,-0.0366813952287826,1.2375517805355696e-06,-0.0697320960874589,-3.068168800340455,1.7111658562643106e-07,2.9023055398332907e-05,-3.6476993297941607e-08,0.6837646569701604,1.309871296602848e-05,9.786180331232428,-0.0731796174119474,-0.9973056733245382,0.0051124896215629,-4.107745771369089,-1.4842577833462656e-08,-3.923008458394903,-9.92784965347937e-10,0.0657126981796112,9.260238009733968e-08
1701865303.9313006,-4.107745771369089,-3.923008458394903,0.0657126981796112,0.0348353554334896,0.0012800673730372,0.9987188466637604,-0.036681395256332,1.2389487959496942e-06,-0.06973185981628,-3.068168800636552,1.710966878029461e-07,2.9370579853995716e-05,-3.6754441571235715e-08,0.6837404375454298,1.3095132956370735e-05,9.78618010009246,-0.0731796183250057,-0.9973056733391384,0.0051124737040046,-4.10774578638012,-1.50110306407214e-08,-3.9230084593999983,-1.0050951182449808e-09,0.0657127918778748,9.369826359240108e-08
1701865303.9409668,-4.10774578638012,-3.9230084593999983,0.0657127918778748,0.0348352360277275,0.0012800636808062,0.9987188508323273,-0.0366813952845528,1.2403458147730192e-06,-0.069731620749338,-3.068168800934884,1.7107777109444926e-07,2.971811772690785e-05,-3.70319446860838e-08,0.683718052917552,1.2988692188871174e-05,9.786179904216038,-0.0731796192501272,-0.9973056733539032,0.0051124575817015,-4.107745801559446,-1.517932624039986e-08,-3.923008460417394,-1.0173955011794078e-09,0.0657128866720264,9.47941516116213e-08
1701865303.956026,-4.107745801559446,-3.923008460417394,0.0657128866720264,0.0348351152258091,0.0012800599372562,0.9987188550496184,-0.0366813953134452,1.241742830769714e-06,-0.0697313788864993,-3.068168801235449,1.7105808183929255e-07,3.006567219284468e-05,-3.730939835956464e-08,0.6836971157104985,1.2969129067869569e-05,9.786179740830168,-0.0731796201873123,-0.9973056733688316,0.0051124412546374,-4.107745816906907,-1.5347461079784352e-08,-3.923008461447076,-1.0296821173483295e-09,0.0657129825620695,9.589004310028848e-08
1701865303.9721026,-4.107745816906907,-3.923008461447076,0.0657129825620695,0.0348349930276928,0.0012800561423859,0.9987188593156348,-0.0366813953430093,1.243139844277181e-06,-0.0697311342276811,-3.068168801538248,1.710384378219347e-07,3.04132369836088e-05,-3.758685217918934e-08,0.6836776065790211,1.295414458408982e-05,9.786179607562287,-0.0731796211365622,-0.9973056733839244,0.0051124247228069,-4.10774583242234,-1.551543338251804e-08,-3.923008462489034,-1.0419580753762148e-09,0.065713079548007,9.698593748941331e-08
1701865303.9813726,-4.10774583242234,-3.923008462489034,0.065713079548007,0.0348348694333577,0.0012800522961975,0.9987188636303772,-0.036681395373245,1.2445368610461772e-06,-0.0697308867728414,-3.06816880184328,1.710195031389239e-07,3.076080696729965e-05,-3.7864345183879386e-08,0.6836595159896935,1.286227616865514e-05,9.78617950216546,-0.0731796220978759,-0.9973056733991812,0.0051124079862124,-4.107745848105582,-1.5683241372244083e-08,-3.923008463543256,-1.054222042995434e-09,0.0657131776298404,9.80818334050948e-08
1701865303.9913323,-4.107745848105582,-3.923008463543256,0.0657131776298404,0.0348347444427631,0.0012800483986854,0.9987188679938458,-0.0366813954041524,1.2459338730384546e-06,-0.0697306365218986,-3.0681688021505464,1.7099957463819245e-07,3.110838712309189e-05,-3.8141776460685616e-08,0.6836424871346882,1.2883074370915502e-05,9.786179422483668,-0.0731796230712543,-0.9973056734146026,0.00511239104484,-4.107745863956467,-1.5850885048962482e-08,-3.923008464609729,-1.0664731320275678e-09,0.0657132768075715,9.917773109713313e-08
1701865304.0030212,-4.107745863956467,-3.923008464609729,0.0657132768075715,0.0348346180559058,0.0012800444498534,0.9987188724060406,-0.0366813954357313,1.2473308881997618e-06,-0.0697303834748465,-3.0681688024600464,1.7098063046879334e-07,3.1455968020436104e-05,-3.84192639039935e-08,0.6836267068736204,1.2799069873417308e-05,9.786179366729291,-0.073179624056697,-0.9973056734301878,0.0051123738986971,-4.107745879974833,-1.6018366189030075e-08,-3.923008465688442,-1.0787126747402453e-09,0.0657133770812008,1.002736293026496e-07
1701865304.0186148,-4.107745879974833,-3.923008465688442,0.0657133770812008,0.0348344902727594,0.0012800404496975,0.9987188768669618,-0.0366813954679823,1.2487279002929711e-06,-0.0697301276316323,-3.0681688027717797,1.709609168212318e-07,3.1803555501992164e-05,-3.8696703117549234e-08,0.6836118347662938,1.280011956505461e-05,9.786179333033289,-0.0731796250542048,-0.9973056734459372,0.0051123565477738,-4.107745896160514,-1.6185681239733185e-08,-3.9230084667793816,-1.0909397829550471e-09,0.0657134784507288,1.0136952799388865e-07
1701865304.0309005,-4.107745896160514,-3.9230084667793816,0.0657134784507288,0.0348343610933142,0.0012800363982176,0.9987188813766096,-0.0366813955009048,1.2501249097072252e-06,-0.0697298689922363,-3.0681688030857464,1.709412486843893e-07,3.215114542116738e-05,-3.89741434621246e-08,0.6835978945407916,1.2804134010764304e-05,9.7861793198557,-0.0731796260637772,-0.997305673461851,0.0051123389920689,-4.107745912513344,-1.635283020107181e-08,-3.923008467882537,-1.1031553448503928e-09,0.0657135809161561,1.0246542730962815e-07
1701865304.040933,-4.107745912513344,-3.923008467882537,0.0657135809161561,0.0348342305175741,0.0012800322954166,0.9987188859349826,-0.0366813955344991,1.2515219221858936e-06,-0.0697296075566667,-3.0681688034019468,1.709222938289618e-07,3.249873432539918e-05,-3.9251624247267015e-08,0.6835849164466423,1.2729718909726022e-05,9.786179325715908,-0.0731796270854139,-0.9973056734779286,0.0051123212315887,-4.107745929033159,-1.6519814849402792e-08,-3.923008468997895,-1.1153580281586528e-09,0.0657136844774824,1.0356132629230075e-07
1701865304.050981,-4.107745929033159,-3.923008468997895,0.0657136844774824,0.0348340985455178,0.0012800281412897,0.9987188905420816,-0.0366813955687651,1.2529189297224688e-06,-0.0697293433248808,-3.0681688037203805,1.7090234681506644e-07,3.284632853609226e-05,-3.9529044081856526e-08,0.683572580125915,1.2766583847324756e-05,9.786179349162854,-0.0731796281191151,-0.9973056734941704,0.0051123032663221,-4.107745945719791,-1.668663163201245e-08,-3.923008470125443,-1.1275478328798272e-09,0.0657137891347081,1.0465722570518476e-07
1701865304.0662491,-4.107745945719791,-3.923008470125443,0.0657137891347081,0.0348339651771576,0.0012800239358415,0.9987188951979056,-0.0366813956037027,1.2543159402687875e-06,-0.0697290762969032,-3.068168804041048,1.708833852734877e-07,3.319391968515905e-05,-3.980652096626647e-08,0.6835611060421388,1.2697368810416376e-05,9.786179389059512,-0.0731796291648805,-0.9973056735105768,0.0051122850962788,-4.107745962573074,-1.6853283213436043e-08,-3.9230084712651694,-1.1397265353707553e-09,0.0657138948878326,1.0575312449356833e-07
1701865304.0712569,-4.107745962573074,-3.9230084712651694,0.0657138948878326,0.0348338304124755,0.0012800196790671,0.9987188999024542,-0.0366813956393122,1.2557129457892168e-06,-0.0697288064726976,-3.0681688043639483,1.708634314433679e-07,3.354151535783873e-05,-4.008393734515144e-08,0.6835501490433517,1.2739006694087936e-05,9.786179444124691,-0.0731796302227106,-0.997305673527147,0.0051122667214483,-4.107745979592844,-1.7019769593673573e-08,-3.923008472417063,-1.1518936915422273e-09,0.065714001736856,1.0684902340685198e-07
1701865304.0863063,-4.107745979592844,-3.923008472417063,0.065714001736856,0.0348336942514857,0.0012800153709712,0.9987189046557268,-0.0366813956755932,1.257109954296891e-06,-0.0697285338522932,-3.068168804689083,1.708444660798853e-07,3.388910738531487e-05,-4.0361411123373044e-08,0.6835399396062627,1.2674154975733251e-05,9.786179513416082,-0.0731796312926042,-0.9973056735438812,0.0051122481418405,-4.107745996778931,-1.718608722001136e-08,-3.92300847358111,-1.164047080948194e-09,0.0657141096817778,1.079449217927797e-07
1701865304.091315,-4.107745996778931,-3.92300847358111,0.0657141096817778,0.0348335566941758,0.0012800110115501,0.9987189094577232,-0.0366813957125458,1.2585069595472956e-06,-0.0697282584356647,-3.068168805016451,1.7082473026235982e-07,3.4236702587512605e-05,-4.0638837456962736e-08,0.6835301772785145,1.269286799654718e-05,9.78617959583879,-0.0731796323745619,-0.99730567356078,0.0051122293574474,-4.107746014131172,-1.735224142151992e-08,-3.9230084747573,-1.1761898122131242e-09,0.0657142187225976,1.0904081980400715e-07
1701865304.10311,-4.107746014131172,-3.9230084747573,0.0657142187225976,0.0348334177405465,0.0012800066008042,0.9987189143084424,-0.0366813957501703,1.2599039619191411e-06,-0.0697279802228133,-3.068168805346051,1.7080504334468253e-07,3.45842976001605e-05,-4.0916266085476966e-08,0.6835209228023814,1.2713082103101753e-05,9.786179690566582,-0.073179633468584,-0.9973056735778426,0.0051122103682696,-4.107746031649399,-1.751822686912874e-08,-3.923008475945618,-1.1883178885341295e-09,0.0657143288593155,1.1013671789850132e-07
1701865304.114153,-4.107746031649399,-3.923008475945618,0.0657143288593155,0.0348332773906097,0.0012800021387366,0.9987189192078838,-0.0366813957884663,1.2613009672084016e-06,-0.0697276992137636,-3.0681688056778857,1.7078607180909617e-07,3.493188958359539e-05,-4.1193735855019406e-08,0.6835122402193469,1.2653613313275728e-05,9.786179796776354,-0.0731796345746691,-0.9973056735950694,0.0051121911743144,-4.107746049333445,-1.7684045339194654e-08,-3.9230084771460536,-1.2004357508033081e-09,0.0657144400919305,1.1123261500767256e-07
1701865304.1302216,-4.107746049333445,-3.9230084771460536,0.0657144400919305,0.0348331356443505,0.0012799976253429,0.9987189241560472,-0.036681395827434,1.2626979673781408e-06,-0.0697274154084852,-3.0681688060119536,1.707661067170445e-07,3.527948533886044e-05,-4.1471145431587895e-08,0.6835038404603239,1.2704204559272637e-05,9.786179913619373,-0.0731796356928181,-0.9973056736124604,0.0051121717755718,-4.107746067183145,-1.7849700384431344e-08,-3.923008478358594,-1.2125402903961913e-09,0.0657145524204428,1.1232851229725505e-07
1701865304.131252,-4.107746067183145,-3.923008478358594,0.0657145524204428,0.0348329925017856,0.0012799930606276,0.9987189291529316,-0.0366813958670732,1.2640949704149744e-06,-0.0697271288070118,-3.068168806348255,1.7074712952660338e-07,3.562707688770084e-05,-4.174861281530775e-08,0.6834959727054999,1.2647612761762424e-05,9.78618004051498,-0.0731796368230298,-0.9973056736300158,0.0051121521720521,-4.107746085198331,-1.801518578758987e-08,-3.923008479583228,-1.224634171848038e-09,0.0657146658448517,1.1342440889294814e-07
1701865304.1513605,-4.107746085198331,-3.923008479583228,0.0657146658448517,0.0348328479629039,0.0012799884445873,0.9987189341985364,-0.0366813959073842,1.265491970082649e-06,-0.0697268394093214,-3.068168806686789,1.707273843952754e-07,3.597467120109511e-05,-4.2026033337779345e-08,0.6834883538367497,1.2673893781371615e-05,9.786180176698572,-0.0731796379653055,-0.9973056736477348,0.0051121323637475,-4.107746103378838,-1.8180506877740754e-08,-3.923008480819942,-1.2367138424451696e-09,0.065714780365157,1.1452030530822999e-07
1701865304.1622424,-4.107746103378838,-3.923008480819942,0.065714780365157,0.0348327020277074,0.0012799837772222,0.9987189392928616,-0.0366813959483664,1.2668889668176954e-06,-0.0697265472154176,-3.068168807027557,1.7070768800391636e-07,3.632226504250209e-05,-4.2303456517705874e-08,0.6834810603267125,1.2701106735219068e-05,9.786180321654449,-0.0731796391196435,-0.9973056736656184,0.0051121123506586,-4.107746121724496,-1.8345658325813474e-08,-3.923008482068724,-1.248781966722845e-09,0.0657148959813585,1.1561620150146723e-07
1701865304.1780145,-4.107746121724496,-3.923008482068724,0.0657148959813585,0.0348325546962089,0.0012799790585357,0.9987189444359053,-0.0366813959900204,1.2682859663417476e-06,-0.0697262522253264,-3.068168807370558,1.7068870509213497e-07,3.66698556600504e-05,-4.258092099196165e-08,0.68347417093934,1.2648043662226353e-05,9.786180474838304,-0.0731796402860444,-0.997305673683666,0.0051120921327931,-4.107746140235142,-1.851064634905697e-08,-3.923008483329562,-1.2608381005918545e-09,0.0657150126934555,1.1671209700081508e-07
1701865304.1912649,-4.107746140235142,-3.923008483329562,0.0657150126934555,0.0348324059683938,0.0012799742885232,0.9987189496276676,-0.036681396032346,1.269682960657866e-06,-0.0697259544390185,-3.068168807715792,1.7066873235453873e-07,3.701744993217903e-05,-4.285832585754874e-08,0.6834674099655283,1.270454500853104e-05,9.786180635662872,-0.0731796414645084,-0.9973056737018778,0.0051120717101409,-4.107746158910608,-1.8675465618400722e-08,-3.923008484602444,-1.2728817999629882e-09,0.0657151305014482,1.1780799269445197e-07
1701865304.203339,-4.107746158910608,-3.923008484602444,0.0657151305014482,0.0348322558442791,0.0012799694671894,0.998718954868148,-0.0366813960753429,1.2710799577652735e-06,-0.0697256538565281,-3.06816880806326,1.706497461547239e-07,3.736503993278387e-05,-4.3135788766227554e-08,0.6834610389304369,1.26533993917978e-05,9.786180803787136,-0.073179642655034,-0.9973056737202538,0.0051120510827124,-4.1077461777507285,-1.884012057473683e-08,-3.923008485887357,-1.2849130648362461e-09,0.0657152494053358,1.1890388759705495e-07
1701865304.2113678,-4.1077461777507285,-3.923008485887357,0.0657152494053358,0.0348321043238503,0.0012799645945296,0.9987189601573454,-0.0366813961190114,1.2724769496266005e-06,-0.069725350477826,-3.06816880841296,1.7062976992382866e-07,3.771263358161298e-05,-4.34131920359272e-08,0.683454750464001,1.2711666510785547e-05,9.786180978659113,-0.0731796438576225,-0.997305673738794,0.0051120302504975,-4.107746196755334,-1.9004605888994774e-08,-3.92300848718429,-1.2969332274792578e-09,0.0657153694051185,1.1999978270782474e-07
1701865304.225939,-4.107746196755334,-3.92300848718429,0.0657153694051185,0.0348319514071243,0.0012799596705486,0.9987189654952592,-0.0366813961633514,1.2738739442380257e-06,-0.0697250443029463,-3.068168808764894,1.706107821428517e-07,3.806022297283741e-05,-4.3690653515031716e-08,0.6834488098376488,1.2662098138572862e-05,9.786181160010925,-0.0731796450722729,-0.9973056737574982,0.0051120092135066,-4.107746215924262,-1.9168927778423495e-08,-3.923008488493229,-1.3089387351783444e-09,0.0657154905007958,1.210956772912386e-07
1701865304.2359638,-4.107746215924262,-3.923008488493229,0.0657154905007958,0.03483179709409,0.0012799546952428,0.998718970881889,-0.0366813962083628,1.2752709353767738e-06,-0.0697247353318668,-3.068168809119061,1.705910245003568e-07,3.840781513830972e-05,-4.396806839392056e-08,0.6834429485024313,1.2694888903917208e-05,9.78618134736668,-0.0731796462989852,-0.9973056737763664,0.0051119879717319,-4.107746235257344,-1.933308180213089e-08,-3.923008489814164,-1.320935361093234e-09,0.0657156126923672,1.2219157140280767e-07
1701865304.2493773,-4.107746235257344,-3.923008489814164,0.0657156126923672,0.0348316413847493,0.0012799496686125,0.998718976317234,-0.0366813962540455,1.2766679234737254e-06,-0.0697244235645911,-3.0681688094754618,1.7057131914407934e-07,3.875540685693478e-05,-4.424548633755391e-08,0.6834372567095824,1.2728043076258776e-05,9.78618154046892,-0.073179647537759,-0.997305673795399,0.0051119665251741,-4.107746254754413,-1.9497068848295385e-08,-3.92300849114708,-1.332915999796569e-09,0.0657157359798331,1.232874659029548e-07
1701865304.264258,-4.107746254754413,-3.92300849114708,0.0657157359798331,0.0348314842791147,0.001279944590661,0.9987189818012931,-0.0366813963003998,1.2780649142539903e-06,-0.0697241090011444,-3.068168809834096,1.7055232686624217e-07,3.910299541957991e-05,-4.452294597431932e-08,0.6834318255060196,1.268048555134367e-05,9.786181739020346,-0.0731796487885946,-0.997305673814596,0.0051119448738408,-4.107746274415304,-1.9660891581452233e-08,-3.923008492491967,-1.3448868685372872e-09,0.0657158603631927,1.2438335959819025e-07
1701865304.281026,-4.107746274415304,-3.923008492491967,0.0657158603631927,0.0348313257771712,0.0012799394613838,0.9987189873340664,-0.0366813963474254,1.2794618997406297e-06,-0.0697237916414969,-3.0681688101949622,1.7053234298783296e-07,3.945058771448564e-05,-4.4800346055668384e-08,0.68342639075388,1.2742032495299025e-05,9.786181942652409,-0.0731796500514914,-0.9973056738339569,0.0051119230177217,-4.107746294239848,-1.98245437843525e-08,-3.923008493848812,-1.3568448586909199e-09,0.0657159858424463,1.2547925359873702e-07
1701865304.29134,-4.107746294239848,-3.923008493848812,0.0657159858424463,0.0348311658789356,0.0012799342807854,0.9987189929155524,-0.0366813963951222,1.2808588879098236e-06,-0.0697234714856823,-3.0681688105580625,1.705133485327917e-07,3.979817582184154e-05,-4.507780462762721e-08,0.6834212245492959,1.2695518003913348e-05,9.786182151229756,-0.0731796513264489,-0.9973056738534816,0.0051119009568272,-4.107746314227881,-1.998803256242354e-08,-3.9230084952176014,-1.368789526168257e-09,0.0657161124175932,1.265751469053944e-07
1701865304.3033037,-4.107746314227881,-3.9230084952176014,0.0657161124175932,0.0348310045843965,0.0012799290488624,0.9987189985457506,-0.0366813964434905,1.282255872537493e-06,-0.0697231485336775,-3.068168810923396,1.7049358528416705e-07,4.014576677349283e-05,-4.535521667044192e-08,0.6834160648041031,1.2731078233398694e-05,9.786182364396442,-0.0731796526134677,-0.9973056738731708,0.0051118786911496,-4.107746334379236,-2.01513552511301e-08,-3.9230084965983263,-1.3807248677721873e-09,0.0657162400886335,1.276710402953185e-07
1701865304.3113055,-4.107746334379236,-3.9230084965983263,0.0657162400886335,0.0348308418935554,0.0012799237656151,0.9987190042246608,-0.0366813964925302,1.2836528540266948e-06,-0.0697228227854856,-3.068168811290961,1.7047387238336942e-07,4.049335735697515e-05,-4.563263191690016e-08,0.6834110074594462,1.276681244469158e-05,9.78618258201033,-0.0731796539125476,-0.997305673893024,0.0051118562206895,-4.107746354693745,-2.0314509185936913e-08,-3.923008497990972,-1.3926455544321925e-09,0.0657163688555672,1.287669336991204e-07
1701865304.3210835,-4.107746354693745,-3.923008497990972,0.0657163688555672,0.0348306778064246,0.0012799184310467,0.9987190099522816,-0.0366813965422409,1.2850498381720975e-06,-0.0697224942411314,-3.068168811660761,1.704548741712164e-07,4.084094485205659e-05,-4.591008898544493e-08,0.6834061490494102,1.272160902226606e-05,9.786182803875098,-0.0731796552236873,-0.9973056739130416,0.0051118335454542,-4.107746375171245,-2.0477499695914503e-08,-3.923008499395526,-1.4045542506835318e-09,0.0657164987183938,1.2986282660332193e-07
1701865304.3347538,-4.107746375171245,-3.923008499395526,0.0657164987183938,0.0348305123229888,0.0012799130451527,0.9987190157286132,-0.0366813965926231,1.2864468169406816e-06,-0.0697221629005844,-3.068168812032793,1.7043488530614686e-07,4.118853614850774e-05,-4.618748669494512e-08,0.6834012303171542,1.2785326351514943e-05,9.786183029719714,-0.0731796565468879,-0.9973056739332232,0.0051118106654338,-4.107746395811565,-2.064032056381393e-08,-3.923008500811977,-1.4164509565262051e-09,0.0657166296771135,1.309587197018125e-07
1701865304.341263,-4.107746395811565,-3.923008500811977,0.0657166296771135,0.0348303454432645,0.0012799076079376,0.9987190215536536,-0.0366813966436763,1.2878437983260158e-06,-0.0697218287638777,-3.0681688124070594,1.7041588338219101e-07,4.153612332876955e-05,-4.646494284650694e-08,0.6833965278738523,1.2740821205386414e-05,9.78618325949756,-0.0731796578821479,-0.9973056739535688,0.0051117875806384,-4.107746416614543,-2.0802978006884132e-08,-3.923008502240312,-1.4283347837817928e-09,0.0657167617317258,1.320546123007027e-07
1701865304.3514118,-4.107746416614543,-3.923008502240312,0.0657167617317258,0.0348301771672401,0.0012799021193981,0.9987190274274031,-0.0366813966954009,1.289240776109674e-06,-0.0697214918309879,-3.068168812783558,1.703961158006457e-07,4.188371341359619e-05,-4.6742352805423693e-08,0.6833917838976699,1.2778199558082306e-05,9.786183492931546,-0.0731796592294685,-0.9973056739740788,0.0051117642910603,-4.10774643758001,-2.096546669605459e-08,-3.92300850368052,-1.440207952896344e-09,0.0657168948822307,1.331505048995929e-07
1701865304.3674228,-4.10774643758001,-3.92300850368052,0.0657168948822307,0.0348300074949168,0.0012798965795342,0.9987190333498608,-0.0366813967477966,1.2906377507121028e-06,-0.0697211521019174,-3.06816881316229,1.703763970257427e-07,4.223130319351532e-05,-4.701976592923997e-08,0.6833870980603249,1.2815642419557446e-05,9.786183729955718,-0.0731796605888486,-0.9973056739947528,0.0051117407967,-4.107746458707799,-2.1127789295860566e-08,-3.923008505132588,-1.4520682434238097e-09,0.0657170291286284,1.3424639769277213e-07
1701865304.370931,-4.107746458707799,-3.923008505132588,0.0657170291286284,0.0348298364263066,0.0012798909883494,0.9987190393210256,-0.0366813968008635,1.292034727876671e-06,-0.0697208095766906,-3.068168813543255,1.703573920882285e-07,4.257888994231821e-05,-4.729722088265418e-08,0.6833825705293689,1.2771982522599416e-05,9.786183970441996,-0.0731796619602881,-0.9973056740155912,0.005111717097565,-4.107746479997747,-2.1289947582658897e-08,-3.923008506596504,-1.4639160994533995e-09,0.0657171644709183,1.3534228990308428e-07
1701865304.383104,-4.107746479997747,-3.923008506596504,0.0657171644709183,0.0348296639613941,0.0012798853458391,0.9987190453408972,-0.0366813968546016,1.2934316996238326e-06,-0.0697204642552766,-3.0681688139264525,1.7033739952440905e-07,4.292648054650245e-05,-4.7574616798747785e-08,0.6833779452441084,1.2837137903289902e-05,9.786184214182066,-0.0731796633437874,-0.9973056740365934,0.0051116931936451,-4.107746501449683,-2.1451936227379065e-08,-3.923008508072255,-1.4757510768959037e-09,0.0657173009091007,1.3643818240482997e-07
1701865304.3911347,-4.107746501449683,-3.923008508072255,0.0657173009091007,0.0348294901001955,0.0012798796520078,0.9987190514094744,-0.0366813969090108,1.2948286739184632e-06,-0.0697201161377079,-3.068168814311884,1.7031839179947286e-07,4.327406708594392e-05,-4.785207103505649e-08,0.6833735018168129,1.2793954092460332e-05,9.786184461187998,-0.0731796647393453,-0.99730567405776,0.0051116690849505,-4.107746523063446,-2.1613762335448428e-08,-3.923008509559829,-1.487573619840532e-09,0.0657174384431752,1.3753407449024202e-07
1701865304.403218,-4.107746523063446,-3.923008509559829,0.0657174384431752,0.0348293148426955,0.001279873906851,0.9987190575267568,-0.0366813969640911,1.2962256427531944e-06,-0.0697197652239537,-3.0681688146995474,1.7029839529893117e-07,4.362165748086372e-05,-4.812946616061128e-08,0.6833689495615705,1.2859533469772445e-05,9.786184711227326,-0.0731796661469626,-0.9973056740790908,0.0051116447714711,-4.107746544838864,-2.1775418801439628e-08,-3.923008511059215,-1.4993863928225437e-09,0.065717577073142,1.3862996681157647e-07
1701865304.4153025,-4.107746544838864,-3.923008511059215,0.065717577073142,0.0348291381889102,0.0012798681103733,0.9987190636927438,-0.0366813970198423,1.2976226141333325e-06,-0.0697194115140465,-3.068168815089445,1.702793870650228e-07,4.396924382320776e-05,-4.840691980859352e-08,0.6833645690013697,1.2816717605213191e-05,9.786184964331902,-0.0731796675666379,-0.9973056741005856,0.0051116202532172,-4.1077465667757735,-2.1936909178066344e-08,-3.923008512570399,-1.5111836226822106e-09,0.0657177167990008,1.39725858799844e-07
1701865304.4311714,-4.1077465667757735,-3.923008512570399,0.0657177167990008,0.0348289601388277,0.0012798622625711,0.998719069907434,-0.0366813970762647,1.2990195818317569e-06,-0.0697190550079624,-3.0681688154815747,1.7025961229577677e-07,4.43168331403904e-05,-4.8684327364930026e-08,0.6833601057581383,1.285569611609698e-05,9.78618522029635,-0.0731796689983722,-0.9973056741222444,0.0051115955301808,-4.107746588874009,-2.2098235241685416e-08,-3.92300851409337,-1.5229710825792608e-09,0.0657178576207514,1.4082175059382251e-07
1701865304.4311714,-4.107746588874009,-3.92300851409337,0.0657178576207514,0.0348287806924489,0.0012798563634447,0.9987190761708276,-0.0366813971333581,1.3004165462571772e-06,-0.0697186957057034,-3.068168815875938,1.7023988641254708e-07,4.466442220829694e-05,-4.8961738048127354e-08,0.6833556629413718,1.2894559466474612e-05,9.786185479117975,-0.0731796704421649,-0.9973056741440678,0.0051115706023625,-4.107746611133401,-2.2259392551404744e-08,-3.9230085156281143,-1.5347443316215958e-09,0.0657179995383942,1.4191764280413466e-07
1701865304.4509182,-4.107746611133401,-3.9230085156281143,0.0657179995383942,0.0348285998497857,0.0012798504129974,0.9987190824829228,-0.0366813971911223,1.3018135131973049e-06,-0.0697183336072933,-3.0681688162725345,1.7022087600884265e-07,4.501200829876397e-05,-4.923919085814616e-08,0.6833513436188309,1.2852240975485971e-05,9.786185740726728,-0.073179671898015,-0.997305674166055,0.0051115454697697,-4.107746633553788,-2.2420386436294848e-08,-3.923008517174622,-1.5465078107013142e-09,0.0657181425519285,1.4301353429280184e-07
1701865304.4509182,-4.107746633553788,-3.923008517174622,0.0657181425519285,0.0348284176108225,0.0012798444112247,0.9987190888437196,-0.0366813972495577,1.3032104746152095e-06,-0.0697179687127009,-3.068168816671363,1.702008746132579e-07,4.535959829686583e-05,-4.9516584465601536e-08,0.683346894575801,1.291861850847006e-05,9.786186004968991,-0.0731796733659237,-0.9973056741882064,0.0051115201323923,-4.107746656134999,-2.258121156728521e-08,-3.923008518732879,-1.5582570789263173e-09,0.0657182866613549,1.4410942640596947e-07
1701865304.4712286,-4.107746656134999,-3.923008518732879,0.0657182866613549,0.0348282339755753,0.001279838358131,0.9987190952532168,-0.0366813973086639,1.304607438510546e-06,-0.0697176010219584,-3.0681688170724253,1.701818613567829e-07,4.5707184274117946e-05,-4.9794036657729727e-08,0.6833425979928798,1.287654909141858e-05,9.786186271905324,-0.0731796748458895,-0.997305674210522,0.0051114945902404,-4.107746678876871,-2.2741871497089505e-08,-3.923008520302873,-1.5699939126534446e-09,0.0657184318666728,1.4520531789463664e-07
1701865304.4812765,-4.107746678876871,-3.923008520302873,0.0657184318666728,0.0348280489440321,0.0012798322537129,0.9987191017114136,-0.0366813973684412,1.3060043986701063e-06,-0.0697172305350417,-3.0681688174757205,1.701620809711757e-07,4.605477325038881e-05,-5.007144264660159e-08,0.683338201119021,1.2916183080908498e-05,9.78618654135772,-0.0731796763379131,-0.9973056742330018,0.0051114688433061,-4.107746701779237,-2.2902366225707738e-08,-3.9230085218845936,-1.5817205323287453e-09,0.0657185781678822,1.463012093971816e-07
1701865304.4914696,-4.107746701779237,-3.9230085218845936,0.0657185781678822,0.0348278625161938,0.0012798260979706,0.9987191082183098,-0.0366813974288892,1.3074013555082514e-06,-0.0697168572519526,-3.068168817881248,1.7014235027643128e-07,4.640236200629311e-05,-5.0348851991910255e-08,0.6833338083697997,1.2955687899175724e-05,9.78618681335196,-0.0731796778419938,-0.9973056742556456,0.00511144289159,-4.107746724910891,-2.3131653925645423e-08,-3.923008523477124,-1.5925305518749155e-09,0.0657187253945421,1.4722665990507533e-07
1701865304.5009785,-4.107746724910891,-3.923008523477124,0.0657187253945421,0.034827674167237,0.0012798199169415,0.9987191147922072,-0.0366813974890703,1.3088891522154855e-06,-0.0697164801250265,-3.0681688182953963,1.8135991857255899e-07,4.688018465440767e-05,-5.141847723420509e-08,0.6833298788299285,1.2860474304660813e-05,9.78618349360064,-0.0731796793571308,-0.997305674278458,0.005111416748579,-4.107746748189882,-2.3278991179154218e-08,-3.923008525081539,-1.604414823219713e-09,0.0657188737477994,1.4835325730377935e-07
1701865304.5110772,-4.107746748189882,-3.923008525081539,0.0657188737477994,0.0348274845193432,0.0012798136796127,0.9987191214114068,-0.036681397550095,1.3103598027256257e-06,-0.0697161003962661,-3.068168818710584,1.7921950753134993e-07,4.720361548548407e-05,-5.15479621867199e-08,0.6833249038786189,1.299354559599676e-05,9.78618789697789,-0.0731796808845181,-0.9973056743014348,0.0051113903979939,-4.107746771618136,-2.3428254003476923e-08,-3.923008526697776,-1.6162369220751316e-09,0.0657190232235943,1.4947579489443807e-07
1701865304.5211313,-4.107746771618136,-3.923008526697776,0.0657190232235943,0.0348272935566054,0.0012798073869547,0.9987191280764628,-0.0366813976119299,1.3118164234665858e-06,-0.0697157180339305,-3.068168819127029,1.774646221694153e-07,4.753099197890023e-05,-5.1704314243836736e-08,0.6833207338856684,1.295136121419138e-05,9.786188240477111,-0.0731796824241025,-0.9973056743245756,0.0051113638406049,-4.107746795197636,-2.3579500130210818e-08,-3.923008528325797,-1.6280212733477128e-09,0.0657191738166163,1.5059302199693647e-07
1701865304.5311856,-4.107746795197636,-3.923008528325797,0.0657191738166163,0.0348271012627106,0.0012798010397615,0.9987191347879428,-0.0366813976745469,1.3132618077011563e-06,-0.0697153330054546,-3.0681688195449253,1.7605527747604352e-07,4.78624166005662e-05,-5.188479434524091e-08,0.6833162941899319,1.3017689723160968e-05,9.786188404595986,-0.0731796839758562,-0.9973056743478808,0.0051113370768012,-4.107746818929928,-2.373229168739499e-08,-3.923008529965568,-1.6397709856619258e-09,0.0657193255225965,1.5170598020863846e-07
1701865304.542524,-4.107746818929928,-3.923008529965568,0.0657193255225965,0.0348269076246619,0.0012797946386789,0.9987191415463,-0.0366813977379237,1.3146982067533424e-06,-0.0697149452848935,-3.0681688199644297,1.7492443605441637e-07,4.819706640810621e-05,-5.20847051292389e-08,0.6833119912651645,1.2975576458949796e-05,9.786188593409769,-0.0731796855397556,-0.99730567437135,0.0051113101069183,-4.107746842816221,-2.3886292943586795e-08,-3.92300853161706,-1.6514918321774985e-09,0.0657194783381189,1.5281552240287155e-07
1701865304.5510635,-4.107746842816221,-3.92300853161706,0.0657194783381189,0.0348267126320285,0.0012797881842159,0.9987191483518968,-0.0366813978020428,1.3161274090964986e-06,-0.0697145548514248,-3.068168820385666,1.7401484164214165e-07,4.853430461320835e-05,-5.2300061896814524e-08,0.6833075741429548,1.3015264324857873e-05,9.786188803485064,-0.0731796871157835,-0.9973056743949836,0.0051112829312076,-4.107746866857444,-2.4041223234405606e-08,-3.923008533280246,-1.6631860333404802e-09,0.0657196322604516,1.5392233269906352e-07
1701865304.561329,-4.107746866857444,-3.923008533280246,0.0657196322604516,0.0348265162764792,0.0012797816767833,0.9987191552050232,-0.0366813978668894,1.3175508518715736e-06,-0.0697141616884172,-3.068168820808735,1.7328302790420184e-07,4.8873610244517534e-05,-5.2527827928507326e-08,0.6833031482853065,1.305478560809159e-05,9.786189031082367,-0.0731796887039246,-0.9973056744187816,0.0051112555498783,-4.10774689105431,-2.4196865844317017e-08,-3.923008534955104,-1.6748580300429694e-09,0.0657197872874099,1.5502695829838764e-07
1701865304.5813758,-4.10774689105431,-3.923008534955104,0.0657197872874099,0.0348263185513582,0.0012797751167131,0.99871916210591,-0.0366813979324523,1.3189696906153916e-06,-0.0697137657825844,-3.068168821233717,1.7269416374931513e-07,4.9214567474352285e-05,-5.276556463699708e-08,0.6832988188846238,1.3013109837559e-05,9.786189273119732,-0.073179690304167,-0.9973056744427434,0.0051112279631049,-4.107746915407356,-2.4353045802172346e-08,-3.9230085366416128,-1.6865087104633858e-09,0.0657199434172451,1.5612983519930346e-07
1701865304.5914173,-4.107746915407356,-3.9230085366416128,0.0657199434172451,0.0348261194513094,0.0012797685042634,0.9987191690547438,-0.0366813979987222,1.3203848370192554e-06,-0.069713367123234,-3.0681688216606764,1.722180791891612e-07,4.955685385661597e-05,-5.3011179451131e-08,0.6832943347904374,1.308008884678224e-05,9.786189527033343,-0.0731796919165014,-0.9973056744668696,0.0051112001710098,-4.107746939916978,-2.450962188760286e-08,-3.923008538339752,-1.698139406869359e-09,0.0657201006485597,1.5723131459310924e-07
1701865304.6063964,-4.107746939916978,-3.923008538339752,0.0657201006485597,0.0348259189720818,0.0012797618396494,0.9987191760516718,-0.036681398065692,1.3217970356591243e-06,-0.0697129657018805,-3.068168822089663,1.718341066527861e-07,4.990019507694399e-05,-5.3263215743597854e-08,0.6832899800739689,1.303858403875541e-05,9.786189791000591,-0.0731796935409202,-0.99730567449116,0.005111172173711,-4.107746964583461,-2.46664830783061e-08,-3.9230085400495054,-1.7097532278853578e-09,0.0657202589802349,1.5833167520129532e-07
1701865304.6159694,-4.107746964583461,-3.9230085400495054,0.0657202589802349,0.0348257171102425,0.0012797551230357,0.9987191830968126,-0.0366813981333555,1.32320686924025e-06,-0.0697125615116703,-3.0681688225207187,1.715222171314943e-07,5.0244388232175136e-05,-5.352028718296869e-08,0.6832855037266466,1.307877037380898e-05,9.786190063288627,-0.0731796951774172,-0.9973056745156148,0.0051111439712852,-4.107746989406999,-2.4823537891904834e-08,-3.923008541770856,-1.7213506176005922e-09,0.0657204184113762,1.5943114130279046e-07
1701865304.6220992,-4.107746989406999,-3.923008541770856,0.0657204184113762,0.0348255138630595,0.0012797483545574,0.9987191901902608,-0.0366813982017081,1.324614809908292e-06,-0.0697121545471504,-3.068168822953876,1.7126873387771124e-07,5.05892592835496e-05,-5.378143628714757e-08,0.6832810118551503,1.311876552553988e-05,9.786190342733375,-0.0731796968259872,-0.9973056745402334,0.0051111155638019,-4.107747014387712,-2.4980713497768647e-08,-3.923008543503786,-1.7329297996582227e-09,0.0657205789412685,1.6052989229575765e-07
1701865304.6378374,-4.107747014387712,-3.923008543503786,0.0657205789412685,0.0348253092283579,0.001279741534326,0.9987191973320918,-0.0366813982707462,1.326021240933109e-06,-0.0697117448039791,-3.0681688233891613,1.710626669561853e-07,5.09346700133277e-05,-5.404588843467338e-08,0.6832766103626073,1.3077497293396412e-05,9.78619062831296,-0.0731796984866263,-0.9973056745650166,0.0051110869513238,-4.107747039525668,-2.5137955717013938e-08,-3.923008545248283,-1.7444969913071873e-09,0.0657207405693389,1.6162807039976634e-07
1701865304.6414735,-4.107747039525668,-3.923008545248283,0.0657207405693389,0.0348251032043672,0.0012797346624228,0.9987192045223656,-0.0366813983404665,1.3274264559801227e-06,-0.0697113322786218,-3.068168823826596,1.708929261641406e-07,5.128052012640151e-05,-5.4312882671551563e-08,0.6832720486589889,1.314484194282002e-05,9.786190919111766,-0.0731797001593314,-0.9973056745899636,0.0051110581338838,-4.107747064820881,-2.5295213035292363e-08,-3.92300854700433,-1.7560473075661776e-09,0.06572090329513,1.6272579110576668e-07
1701865304.6536982,-4.107747064820881,-3.92300854700433,0.06572090329513,0.0348248957897057,0.0012797277389218,0.9987192117611304,-0.0366813984108665,1.3288307050711355e-06,-0.0697109169683208,-3.068168824266196,1.707541151557676e-07,5.16267130708831e-05,-5.458202821679848e-08,0.6832676112963556,1.3103675982728802e-05,9.786191214627555,-0.0731797018440989,-0.997305674615075,0.005111029111528,-4.107747090273336,-2.5452455254537654e-08,-3.9230085487719135,-1.7675834129704526e-09,0.0657210671182752,1.638231452022465e-07
1701865304.671226,-4.107747090273336,-3.9230085487719135,0.0657210671182752,0.0348246869832364,0.0012797207638745,0.9987192190484244,-0.0366813984819446,1.3302341750485426e-06,-0.0697104988708059,-3.068168824707976,1.7063842024340078e-07,5.197318819539285e-05,-5.4852791378975753e-08,0.6832630477855013,1.3144139501342017e-05,9.786191514184688,-0.073179703540928,-0.9973056746403506,0.0051109998842759,-4.107747115882985,-2.560964862396986e-08,-3.923008550551023,-1.7791093043229012e-09,0.0657212320384818,1.6492020660230367e-07
1701865304.671226,-4.107747115882985,-3.923008550551023,0.0657212320384818,0.0348244767840647,0.0012797137373255,0.9987192263842783,-0.0366813985536991,1.33163702130895e-06,-0.0697100779842915,-3.068168825151945,1.705419477865041e-07,5.2319885295836766e-05,-5.5124897492613473e-08,0.68325846455791,1.3184421435932944e-05,9.7861918174645,-0.0731797052498161,-0.9973056746657905,0.0051109704521509,-4.107747141649753,-2.5766768274593232e-08,-3.92300855234164,-1.7906169880177458e-09,0.0657213980555157,1.660170338979583e-07
1701865304.691028,-4.107747141649753,-3.92300855234164,0.0657213980555157,0.0348242651914859,0.0012797066593137,0.9987192337687156,-0.0366813986261286,1.3330393736555952e-06,-0.0697096543073712,-3.068168825598114,1.704615332628641e-07,5.266675723778551e-05,-5.539811795342437e-08,0.6832539679700345,1.3143379600054844e-05,9.786192124123206,-0.0731797069707615,-0.9973056746913944,0.0051109408151789,-4.107747167573554,-2.5923800883731474e-08,-3.923008554143755,-1.8021153458391836e-09,0.0657215651691889,1.671136731912215e-07
1701865304.691028,-4.107747167573554,-3.923008554143755,0.0657215651691889,0.0348240522049059,0.0012796995298626,0.998719241201756,-0.0366813986992322,1.334441322871492e-06,-0.0697092278388586,-3.068168826046488,1.7039234934357753e-07,5.301377662091888e-05,-5.567212904610168e-08,0.6832493076885008,1.3210942496585416e-05,9.786192433789283,-0.0731797087037635,-0.9973056747171624,0.0051109109733633,-4.107747193654278,-2.6080724246924092e-08,-3.923008555957353,-1.8135977164490669e-09,0.0657217333793522,1.6821016331214356e-07
1701865304.710894,-4.107747193654278,-3.923008555957353,0.0657217333793522,0.0348238378238844,0.0012796923489996,0.9987192486834142,-0.036681398773009,1.3358429566013074e-06,-0.0697087985778755,-3.068168826497073,1.703340094278154e-07,5.336090521723972e-05,-5.594688971014078e-08,0.6832447686120774,1.3169987718021676e-05,9.786192746393414,-0.0731797104488205,-0.9973056747430948,0.0051108809267267,-4.107747219891811,-2.623753303510057e-08,-3.923008557782423,-1.8250703170963334e-09,0.065721902685885,1.693065327934562e-07
1701865304.7211154,-4.107747219891811,-3.923008557782423,0.065721902685885,0.0348236220480341,0.0012796851167382,0.9987192562137026,-0.0366813988474584,1.3372443300031403e-06,-0.0697083665236482,-3.068168826949873,1.702824914073593e-07,5.37081299544041e-05,-5.6222133281566376e-08,0.6832400648744067,1.3237618441426636e-05,9.78619306160151,-0.0731797122059321,-0.9973056747691916,0.0051108506752672,-4.107747246286023,-2.639421214922777e-08,-3.92300855961895,-1.8365269305320453e-09,0.0657220730886919,1.7040280690661103e-07
1701865304.733079,-4.107747246286023,-3.92300855961895,0.0657220730886919,0.0348234048770801,0.0012796778330976,0.99871926379263,-0.0366813989225799,1.3386455022007717e-06,-0.0697079316756284,-3.068168827404892,1.702382902351016e-07,5.4055422874713074e-05,-5.6497880226899185e-08,0.6832354814406775,1.319668941229171e-05,9.786193379428529,-0.0731797139750972,-0.997305674795452,0.0051108202190034,-4.10774727283678,-2.6550756260235175e-08,-3.923008561466923,-1.8479728858267208e-09,0.0657222445876958,1.7149900388702122e-07
1701865304.7412014,-4.10774727283678,-3.923008561466923,0.0657222445876958,0.0348231863107711,0.0012796704980857,0.9987192714202044,-0.0366813989983728,1.340046507324968e-06,-0.069707494033314,-3.068168827862134,1.701983088138917e-07,5.440277820265318e-05,-5.677392592893196e-08,0.6832307680854609,1.3237409419010668e-05,9.786193699609234,-0.073179715756315,-0.997305674821877,0.0051107895579324,-4.107747299543941,-2.670716092723069e-08,-3.923008563326329,-1.8594059625343107e-09,0.0657224171828353,1.7259513949985372e-07
1701865304.751225,-4.107747299543941,-3.923008563326329,0.0657224171828353,0.034822966348921,0.0012796631117122,0.9987192790964312,-0.0366813990748372,1.3414473784861782e-06,-0.0697070535963341,-3.068168828321599,1.7016242650124786e-07,5.475017964044352e-05,-5.705025906814598e-08,0.6832260316616344,1.3277874983541449e-05,9.786194022156314,-0.0731797175495857,-0.997305674848466,0.0051107586920599,-4.107747326407358,-2.6863417268430112e-08,-3.923008565197155,-1.870826160654815e-09,0.0657225908740617,1.7369122640165102e-07
1701865304.7613068,-4.107747326407358,-3.923008565197155,0.0657225908740617,0.0348227449913923,0.001279655673988,0.998719286821314,-0.0366813991519724,1.3428481476728003e-06,-0.0697066103644142,-3.0681688287832904,1.7013050018704038e-07,5.5097615189331285e-05,-5.7326861982212934e-08,0.6832213787190856,1.3237045426335029e-05,9.78619434698736,-0.0731797193549076,-0.9973056748752196,0.0051107276213976,-4.107747353426883,-2.7019525283833445e-08,-3.9230085670793904,-1.882235256545073e-09,0.0657227656613351,1.7478727340480837e-07
1701865304.7714834,-4.107747353426883,-3.9230085670793904,0.0657227656613351,0.0348225222380449,0.0012796481849141,0.9987192945948572,-0.0366813992297784,1.3442488273618143e-06,-0.0697061643372742,-3.0681688292472087,1.7010011832864455e-07,5.544508556945144e-05,-5.7603579553506404e-08,0.6832165592431991,1.330477658001739e-05,9.786194673943832,-0.0731797211722813,-0.9973056749021372,0.0051106963459372,-4.107747380602362,-2.717547875619175e-08,-3.923008568973021,-1.8936305856698255e-09,0.0657229415446248,1.758832896964213e-07
1701865304.7812383,-4.107747380602362,-3.923008568973021,0.0657229415446248,0.0348222980888014,0.0012796406445003,0.9987193024170624,-0.036681399308255,1.345649442555841e-06,-0.0697057155147604,-3.068168829713356,1.7007283102811137e-07,5.579257505011867e-05,-5.788050579941142e-08,0.6832118583548104,1.326397134786961e-05,9.786195003126432,-0.0731797230017057,-0.9973056749292186,0.0051106648656925,-4.107747407933639,-2.733127679732661e-08,-3.9230085708780345,-1.9050134802967023e-09,0.065723118523905,1.769792802031045e-07
1701865304.7912564,-4.107747407933639,-3.9230085708780345,0.065723118523905,0.0348220725435688,0.0012796330527464,0.998719310287932,-0.0366813993874017,1.347050000087245e-06,-0.0697052638966866,-3.0681688301817327,1.7004638577945105e-07,5.6140087665126136e-05,-5.815749506901272e-08,0.6832070260110436,1.3304769129044768e-05,9.786195334345283,-0.0731797248431802,-0.9973056749564644,0.0051106331806565,-4.107747435420555,-2.748691674270276e-08,-3.92300857279442,-1.9163857167825427e-09,0.0657232965991557,1.7807525069801766e-07
1701865304.8037498,-4.107747435420555,-3.92300857279442,0.0657232965991557,0.0348218456022879,0.0012796254096559,0.998719318207467,-0.0366813994672189,1.3484505111748874e-06,-0.0697048094829349,-3.068168830652339,1.7002133448009373e-07,5.648761495808576e-05,-5.8434582992407583e-08,0.6832021691152753,1.3345337482523562e-05,9.786195667672068,-0.0731797266967057,-0.9973056749838746,0.0051106012908317,-4.107747463062951,-2.7642395927784946e-08,-3.923008574722163,-1.927742854235248e-09,0.0657234757703613,1.7917120560817512e-07
1701865304.8133166,-4.107747463062951,-3.923008574722163,0.0657234757703613,0.0348216172649224,0.0012796177152347,0.9987193261756676,-0.0366813995477061,1.3498509903403271e-06,-0.0697043522734332,-3.068168831125176,1.6999807573130976e-07,5.683515121788953e-05,-5.8711789729720855e-08,0.6831973944151599,1.3304575721073196e-05,9.786196003072703,-0.0731797285622803,-0.997305675011449,0.0051105691962272,-4.107747490860668,-2.7797717017108425e-08,-3.923008576661253,-1.939089777636127e-09,0.0657236560375082,1.8026714689034495e-07
1701865304.8213212,-4.107747490860668,-3.923008576661253,0.0657236560375082,0.0348213875314132,0.0012796099694799,0.9987193341925352,-0.0366813996288633,1.3512514360494264e-06,-0.0697038922680629,-3.0681688316002447,1.699746294585155e-07,5.718270218282862e-05,-5.8988990172601376e-08,0.6831924519673628,1.337238413221232e-05,9.786196340426947,-0.0731797304399048,-0.9973056750391872,0.0051105368968329,-4.10774751881354,-2.795287201706742e-08,-3.923008578611677,-1.9504242665391303e-09,0.0657238374005868,1.813630785968412e-07
1701865304.836033,-4.10774751881354,-3.923008578611677,0.0657238374005868,0.034821156401748,0.001279602172398,0.998719342258069,-0.0366813997106903,1.352651862109474e-06,-0.0697034294668002,-3.068168832077545,1.6995289024875974e-07,5.753025614336073e-05,-5.92663025742576e-08,0.6831876269588348,1.3331654468886164e-05,9.786196679869356,-0.0731797323295777,-0.99730567506709,0.0051105043926606,-4.107747546921409,-2.810786892126771e-08,-3.923008580573424,-1.9617467650334675e-09,0.0657240198595881,1.8245900131053094e-07
1701865304.8451293,-4.107747546921409,-3.923008580573424,0.0657240198595881,0.034820923875882,0.0012795943239852,0.9987193503722696,-0.0366813997931871,1.354052264558765e-06,-0.0697029638695553,-3.068168832557077,1.6993066224449556e-07,5.787782125445565e-05,-5.9543587629022255e-08,0.6831826338746619,1.339949496232818e-05,9.786197021223888,-0.0731797342312998,-0.9973056750951568,0.0051104716836999,-4.107747575184107,-2.8262697959746674e-08,-3.9230085825464793,-1.9730554967622993e-09,0.0657242034145063,1.835549181955498e-07
1701865304.8614469,-4.107747575184107,-3.9230085825464793,0.0657242034145063,0.0348206899538143,0.0012795864242475,0.9987193585351364,-0.0366813998763539,1.3554526552152343e-06,-0.0697024954763269,-3.068168833038841,1.6990989912919745e-07,5.822538653480814e-05,-5.982096763380056e-08,0.6831777579625621,1.3358749103074488e-05,9.786197364637555,-0.0731797361450703,-0.997305675123388,0.0051104387699624,-4.107747603601473,-2.8417365349753254e-08,-3.923008584530833,-1.9843535703500947e-09,0.0657243880653354,1.8465082909924213e-07
1701865304.8614469,-4.107747603601473,-3.923008584530833,0.0657243880653354,0.0348204546355129,0.0012795784731819,0.9987193667466692,-0.0366813999601903,1.3568530303554146e-06,-0.0697020242870506,-3.068168833522837,1.698886731843489e-07,5.857295979953397e-05,-6.009831964561466e-08,0.683172749207106,1.3399656959584987e-05,9.78619770994982,-0.0731797380708892,-0.997305675151783,0.0051104056514397,-4.107747632173342,-2.857186931493061e-08,-3.923008586526471,-1.9956383212615947e-09,0.0657245738120713,1.8574673589510926e-07
1701865304.8863258,-4.107747632173342,-3.923008586526471,0.0657245738120713,0.0348202179209673,0.0012795704707893,0.9987193750068674,-0.0366814000446962,1.3582533928329717e-06,-0.0697015503017059,-3.0681688340090663,1.698677986749244e-07,5.892053562469752e-05,-6.037569755796733e-08,0.6831677147540623,1.3440275376778042e-05,9.78619805725704,-0.0731797400087555,-0.9973056751803424,0.005110372328133,-4.107747660899548,-2.872620630256506e-08,-3.9230085885333823,-2.0069110817644287e-09,0.0657247606547112,1.8684263990154104e-07
1701865304.893346,-4.107747660899548,-3.9230085885333823,0.0657247606547112,0.0348199798101804,0.0012795624170738,0.9987193833157298,-0.0366814001298718,1.3596537503341037e-06,-0.0697010735202988,-3.0681688344975275,1.6984788048251358e-07,5.926811071320448e-05,-6.065313586517067e-08,0.6831627613233082,1.3399589327971595e-05,9.786198406545909,-0.0731797419586695,-0.997305675209066,0.0051103388000505,-4.107747689779929,-2.8880380753548707e-08,-3.9230085905515546,-2.0181722959478066e-09,0.0657249485932515,1.87938540299748e-07
1701865304.911398,-4.107747689779929,-3.9230085905515546,0.0657249485932515,0.0348197403031243,0.0012795543120308,0.9987193916732569,-0.036681400215717,1.3610540959569852e-06,-0.0697005939427733,-3.068168834988221,1.698271069025602e-07,5.961569274571449e-05,-6.093052134766638e-08,0.683157639135078,1.346746461927668e-05,9.786198757710531,-0.0731797439206311,-0.997305675237954,0.0051103050671811,-4.107747718814316,-2.903438733881103e-08,-3.9230085925809752,-2.029420631544099e-09,0.0657251376276908,1.8903443931017616e-07
1701865304.921165,-4.107747718814316,-3.9230085925809752,0.0657251376276908,0.0348194993998118,0.0012795461556656,0.9987194000794464,-0.0366814003022317,1.3624544391815392e-06,-0.0697001115691554,-3.0681688354811474,1.6980750653393917e-07,5.996327156880568e-05,-6.120798143218314e-08,0.6831526334627818,1.342677479849361e-05,9.786199110899387,-0.0731797458946394,-0.997305675267006,0.0051102711295363,-4.107747748002547,-2.9188230499244128e-08,-3.923008594621632,-2.040656976731725e-09,0.0657253277580267,1.9013033589199146e-07
1701865304.9312117,-4.107747748002547,-3.923008594621632,0.0657253277580267,0.0348192571002218,0.0012795379479745,0.9987194085342987,-0.0366814003894159,1.3638547743879797e-06,-0.0696996263994025,-3.0681688359763064,1.6978721129159105e-07,6.031085566921496e-05,-6.148539731300747e-08,0.6831474944329928,1.3467693437328797e-05,9.78619946595565,-0.0731797478806945,-0.9973056752962222,0.0051102369871072,-4.107747777344454,-2.9341907570312742e-08,-3.923008596673513,-2.0518808874214756e-09,0.0657255189842581,1.912262314052171e-07
1701865304.9409316,-4.107747777344454,-3.923008596673513,0.0657255189842581,0.0348190134043525,0.0012795296889583,0.9987194170378128,-0.0366814004772693,1.365255102915786e-06,-0.0696991384335115,-3.0681688364736988,1.6976708012071806e-07,6.065844015921989e-05,-6.176282608147173e-08,0.6831423291278516,1.3508357964646255e-05,9.786199822981086,-0.0731797498787957,-0.9973056753256024,0.0051102026398949,-4.107747806839873,-2.9495418552016872e-08,-3.9230085987366055,-2.0630923636133502e-09,0.0657257113063841,1.9232212600250875e-07
1701865304.9565754,-4.107747806839873,-3.9230085987366055,0.0657257113063841,0.0348187683122137,0.0012795213786204,0.9987194255899872,-0.0366814005657922,1.3666554312647609e-06,-0.0696986476715021,-3.068168836973324,1.6974775722708579e-07,6.100602218359259e-05,-6.204030489197368e-08,0.6831372444141903,1.3467694879139995e-05,9.786200181964556,-0.073179751888943,-0.9973056753551472,0.0051101680879074,-4.107747836488638,-2.9648765220713358e-08,-3.9230086008108978,-2.074292293485769e-09,0.0657259047244033,1.9341801919814383e-07
1701865304.9610882,-4.107747836488638,-3.9230086008108978,0.0657259047244033,0.0348185218237833,0.0012795130169562,0.9987194341908217,-0.0366814006549845,1.3680557515557931e-06,-0.0696981541133299,-3.068168837475181,1.6972745901475914e-07,6.135360976560184e-05,-6.231772250317243e-08,0.6831319904706368,1.3535594950334126e-05,9.786200542806885,-0.0731797539111365,-0.997305675384856,0.0051101333311336,-4.107747866290581,-2.98019431355101e-08,-3.923008602896377,-2.0854793447711018e-09,0.0657260992383154,1.9451391210234537e-07
1701865304.981017,-4.107747866290581,-3.923008602896377,0.0657260992383154,0.0348182739390784,0.0012795046039705,0.9987194428403144,-0.036681400744846,1.3694560724841063e-06,-0.0696976577590295,-3.068168837979272,1.6970823718674134e-07,6.170119302524921e-05,-6.25952079093927e-08,0.6831268526315891,1.3494937173757687e-05,9.786200905655946,-0.0731797559453752,-0.9973056754147288,0.0051100983695845,-4.107747896245542,-2.995496029001288e-08,-3.923008604993032,-2.0966548497369786e-09,0.0657262948481195,1.956098040906129e-07
1701865304.9883444,-4.107747896245542,-3.923008604993032,0.0657262948481195,0.0348180246580814,0.0012794961396598,0.998719451538465,-0.0366814008353768,1.3708563878238928e-06,-0.0696971586085655,-3.068168838485595,1.696882447764637e-07,6.204878067340687e-05,-6.287264388923607e-08,0.6831215810962686,1.3535864287943956e-05,9.786201270358807,-0.0731797579916591,-0.997305675444766,0.0051100632032515,-4.1077479263533485,-3.010780691425907e-08,-3.9230086071008494,-2.1078174761157698e-09,0.0657264915538151,1.9670569560703566e-07
1701865305.0010912,-4.1077479263533485,-3.9230086071008494,0.0657264915538151,0.0348177739807936,0.0012794876240244,0.9987194602852724,-0.0366814009265766,1.3722566984159902e-06,-0.0696966566619406,-3.0681688389941515,1.6966835506792249e-07,6.239636800542002e-05,-6.315008835923956e-08,0.6831162829141767,1.3576564048386907e-05,9.786201637017877,-0.0731797600499877,-0.9973056754749676,0.0051100278321355,-4.107747956613839,-3.026049011367604e-08,-3.9230086092198175,-2.118968112085895e-09,0.0657266893554022,1.9780158709570284e-07
1701865305.0112152,-4.107747956613839,-3.9230086092198175,0.0657266893554022,0.0348175219072269,0.0012794790570678,0.9987194690807356,-0.0366814010184459,1.3736570103506788e-06,-0.0696961519191792,-3.0681688395049407,1.6964922447453004e-07,6.274395230114006e-05,-6.34275795594579e-08,0.6831110650116283,1.3535910078581248e-05,9.786202005626247,-0.0731797621203611,-0.997305675505333,0.0051099922562444,-4.107747987026846,-3.041300722372853e-08,-3.9230086113499256,-2.130108089914984e-09,0.06572688825288,1.988974778072139e-07
1701865305.0209408,-4.107747987026846,-3.9230086113499256,0.06572688825288,0.0348172684373611,0.0012794704387852,0.9987194779248536,-0.0366814011109842,1.375057315466706e-06,-0.0696956443802402,-3.0681688400179628,1.696290801776193e-07,6.30915417004269e-05,-6.37050068468156e-08,0.6831056775951989,1.3603826667132312e-05,9.786202376082828,-0.0731797642027788,-0.9973056755358628,0.005109956475567,-4.107748017592202,-3.056535646805969e-08,-3.923008613491159,-2.1412334128001476e-09,0.0657270882462487,1.999933686991362e-07
1701865305.0356338,-4.107748017592202,-3.923008613491159,0.0657270882462487,0.0348170135712148,0.0012794617691815,0.998719486817625,-0.0366814012041914,1.3764576221980167e-06,-0.0696951340451613,-3.0681688405332177,1.696099815458415e-07,6.343912641198272e-05,-6.398249986838186e-08,0.6831004060015692,1.3563197360858503e-05,9.786202748538631,-0.0731797662972402,-0.9973056755665568,0.0051099204901145,-4.107748048309745,-3.071754228756163e-08,-3.923008615643506,-2.1523467452766454e-09,0.0657272893355076,2.010892588971691e-07
1701865305.0461917,-4.107748048309745,-3.923008615643506,0.0657272893355076,0.0348167573087679,0.0012794530482518,0.9987194957590494,-0.036681401298068,1.3778579222890212e-06,-0.0696946209139022,-3.068168841050705,1.695898631249985e-07,6.378671612452275e-05,-6.425992853973585e-08,0.6830949648379696,1.36311221211886e-05,9.786203122833353,-0.0731797684037457,-0.997305675597415,0.0051098842998757,-4.107748079179305,-3.086956024134224e-08,-3.9230086178069543,-2.163448531433687e-09,0.065727491520657,2.0218514940051335e-07
1701865305.0511973,-4.107748079179305,-3.9230086178069543,0.065727491520657,0.0348164996500394,0.0012794442760011,0.998719504749125,-0.0366814013926133,1.3792582241719254e-06,-0.0696941049865013,-3.0681688415704262,1.695707859001961e-07,6.413430108594508e-05,-6.453742260299252e-08,0.6830896394687138,1.3590467110582256e-05,9.786203499122644,-0.073179770522294,-0.9973056756284372,0.0051098479048617,-4.107748110200719,-3.102141388211521e-08,-3.923008619981494,-2.1745396594496924e-09,0.0657276948016963,2.0328103929323493e-07
1701865305.070968,-4.107748110200719,-3.923008619981494,0.0657276948016963,0.0348162405950131,0.0012794354524255,0.9987195137878512,-0.0366814014878279,1.3806585213222606e-06,-0.069693586262926,-3.0681688420923794,1.6955090572688424e-07,6.448189009561444e-05,-6.481486496156477e-08,0.6830841800225712,1.3631441066776834e-05,9.786203877256746,-0.073179772652886,-0.9973056756596236,0.0051098113050637,-4.10774814137382,-3.11731014335237e-08,-3.923008622167111,-2.1856170207001924e-09,0.0657278991786256,2.043769293108566e-07
1701865305.070968,-4.10774814137382,-3.923008622167111,0.0657278991786256,0.0348159801436913,0.0012794265775254,0.9987195228752273,-0.0366814015837112,1.3820588144260982e-06,-0.0696930647431809,-3.068168842616566,1.6953110685741013e-07,6.482947851517619e-05,-6.509231432095268e-08,0.6830786936979489,1.367212901038195e-05,9.786204257339351,-0.0731797747955205,-0.9973056756909744,0.0051097745004827,-4.107748172698441,-3.132462111921086e-08,-3.923008624363792,-2.196681059274397e-09,0.065728104651445,2.054728193978672e-07
1701865305.0910556,-4.107748172698441,-3.923008624363792,0.065728104651445,0.034815718296087,0.0012794176513043,0.998719532011251,-0.0366814016802633,1.383459109444601e-06,-0.0696925404272923,-3.068168843142985,1.6951204752428433e-07,6.517706367994726e-05,-6.536980901469265e-08,0.6830732873283906,1.36315115319865e-05,9.786204639364616,-0.0731797769501969,-0.9973056757224894,0.0051097374911265,-4.107748204174419,-3.14759773800688e-08,-3.923008626571526,-2.207733995618355e-09,0.0657283112201539,2.0656870890201073e-07
1701865305.1012032,-4.107748204174419,-3.923008626571526,0.0657283112201539,0.0348154550521804,0.0012794086737573,0.9987195411959224,-0.0366814017774845,1.3848593980330605e-06,-0.0696920133152206,-3.068168843671637,1.6949195766156814e-07,6.552465377370935e-05,-6.564723867601111e-08,0.6830677112231195,1.3699438042889529e-05,9.786205023230986,-0.0731797791169161,-0.9973056757541686,0.005109700276984,-4.107748235801584,-3.162716577520541e-08,-3.923008628790301,-2.2187749415536473e-09,0.0657285188847529,2.0766459898902134e-07
1701865305.1143625,-4.107748235801584,-3.923008628790301,0.0657285188847529,0.0348151904119908,0.0012793996448893,0.9987195504292398,-0.0366814018753744,1.3862596885584696e-06,-0.0696914834070045,-3.068168844202522,1.6947290289315705e-07,6.587223904026239e-05,-6.592473327181102e-08,0.6830622507257321,1.3658810494011568e-05,9.786205409090943,-0.0731797812956768,-0.997305675786012,0.0051096628580662,-4.107748267579774,-3.177818985733438e-08,-3.923008631020105,-2.2298038970802736e-09,0.0657287276452412,2.0876048829887583e-07
1701865305.1214013,-4.107748267579774,-3.923008631020105,0.0657287276452412,0.0348149243755022,0.0012793905646964,0.9987195597112024,-0.0366814019739332,1.387659974495928e-06,-0.069690950702612,-3.06816884473564,1.694530409924045e-07,6.621982829314011e-05,-6.620217583676201e-08,0.683056656065951,1.3699766897833603e-05,9.78620579679184,-0.0731797834864791,-0.9973056758180194,0.0051096252343643,-4.107748299508822,-3.192904785009887e-08,-3.923008633260925,-2.2408199740198143e-09,0.0657289375016191,2.0985637790016387e-07
1701865305.1311252,-4.107748299508822,-3.923008633260925,0.0657289375016191,0.0348146569427171,0.001279381433179,0.9987195690418088,-0.0366814020731607,1.3890602564471678e-06,-0.0696904152020482,-3.0681688452709905,1.6943325453939733e-07,6.656741690652043e-05,-6.647962503741765e-08,0.6830510343471535,1.3740486800929196e-05,9.786206186438609,-0.0731797856893227,-0.9973056758501913,0.0051095874058793,-4.107748331588559,-3.207973708896361e-08,-3.923008635512749,-2.251824060550689e-09,0.0657291484538868,2.1095226770961872e-07
1701865305.14607,-4.107748331588559,-3.923008635512749,0.0657291484538868,0.0348143881136487,0.0012793722503407,0.998719578421058,-0.036681402173057,1.3904605403594394e-06,-0.0696898769053396,-3.0681688458085734,1.6941420521759044e-07,6.691500222703429e-05,-6.675711940300766e-08,0.6830454924997605,1.369986044921463e-05,9.786206578025348,-0.0731797879042072,-0.9973056758825272,0.005109549372619,-4.107748363818823,-3.223026379117755e-08,-3.923008637775565,-2.2628161566728977e-09,0.0657293605020437,2.1204815689457313e-07
1701865305.161262,-4.107748363818823,-3.923008637775565,0.0657293605020437,0.0348141178882773,0.0012793630161764,0.9987195878489492,-0.0366814022736219,1.3918608178967303e-06,-0.0696893358124469,-3.0681688463483896,1.6939412269495285e-07,6.726259244202538e-05,-6.703454854219326e-08,0.6830397808180723,1.3767797044542218e-05,9.786206971449454,-0.0731797901311322,-0.9973056759150272,0.0051095111345722,-4.107748396199446,-3.2380622627670164e-08,-3.923008640049361,-2.2737958182972307e-09,0.0657295736460903,2.1314404660688346e-07
1701865305.1711266,-4.107748396199446,-3.923008640049361,0.0657295736460903,0.0348138462666223,0.0012793537306911,0.9987195973254804,-0.0366814023748553,1.3932610973956026e-06,-0.0696887919234091,-3.0681688468904387,1.6937507358830974e-07,6.761017780714262e-05,-6.731204249799512e-08,0.683034184608261,1.3727183529104922e-05,9.78620736686642,-0.0731797923700971,-0.9973056759476916,0.0051094726917501,-4.107748428730264,-3.2530818039333553e-08,-3.923008642334125,-2.2847639336021075e-09,0.065729787886026,2.1423993569469335e-07
1701865305.1930125,-4.107748428730264,-3.923008642334125,0.065729787886026,0.0348135732486643,0.0012793443938799,0.9987196068506516,-0.0366814024767574,1.3946613705135233e-06,-0.0696882452381869,-3.06816884743472,1.69354992308236e-07,6.795776804030601e-05,-6.758947130592405e-08,0.6830284185382217,1.3795132027939263e-05,9.786207764113326,-0.0731797946211021,-0.99730567598052,0.0051094340441414,-4.107748461411108,-3.26808446970972e-08,-3.923008644629843,-2.295718282141479e-09,0.0657300032218513,2.153358252959814e-07
1701865305.20427,-4.107748461411108,-3.923008644629843,0.0657300032218513,0.0348132988344224,0.0012793350057477,0.9987196164244604,-0.036681402579328,1.3960616455805316e-06,-0.0696876957568196,-3.0681688479812346,1.6933594323949677e-07,6.830535341566214e-05,-6.786696489784818e-08,0.683022767989133,1.37544870220029e-05,9.786208163349498,-0.0731797968841465,-0.9973056760135128,0.0051093951917574,-4.107748494241814,-3.283070526549636e-08,-3.9230086469365046,-2.3066615284506042e-09,0.0657302196535657,2.1643171439766906e-07
1701865305.211315,-4.107748494241814,-3.9230086469365046,0.0657302196535657,0.034813023023881,0.0012793255662907,0.9987196260469068,-0.0366814026825671,1.397461916046949e-06,-0.0696871434792751,-3.068168848529982,1.6931608432851333e-07,6.865294275835565e-05,-6.814440622723241e-08,0.6830169830815591,1.3795480096968715e-05,9.78620856442415,-0.0731797991592303,-0.9973056760466696,0.0051093561345891,-4.107748527222217,-3.298040329724472e-08,-3.9230086492540974,-2.3175927843510635e-09,0.0657304371811693,2.1752760361037904e-07
1701865305.224543,-4.107748527222217,-3.9230086492540974,0.0657304371811693,0.0348127458170425,0.0012793160755091,0.9987196357179894,-0.0366814027864747,1.39886218252755e-06,-0.0696865884055588,-3.068168849080961,1.692963004602496e-07,6.900053143849575e-05,-6.842185420757117e-08,0.683011171090534,1.383617910245683e-05,9.786208967441423,-0.073179801446353,-0.9973056760799908,0.0051093168726375,-4.107748560352149,-3.3129931686914915e-08,-3.9230086515826086,-2.328511161664437e-09,0.0657306558046624,2.1862349310064477e-07
1701865305.2412567,-4.107748560352149,-3.9230086515826086,0.0657306558046624,0.0348124672139202,0.0012793065334065,0.9987196454377062,-0.0366814028910508,1.400262450929588e-06,-0.0696860305356973,-3.068168849634174,1.692772509843345e-07,6.93481168137261e-05,-6.869934713243078e-08,0.6830054388329659,1.379557718417431e-05,9.78620937239586,-0.0731798037455142,-0.997305676113476,0.0051092774059105,-4.107748593631446,-3.3279297539934305e-08,-3.9230086539220266,-2.3394179926583547e-09,0.0657308755240444,2.1971938199416563e-07
1701865305.2510252,-4.107748593631446,-3.9230086539220266,0.0657308755240444,0.0348121872144945,0.0012792969399781,0.9987196552060572,-0.0366814029962952,1.4016627129183583e-06,-0.0696854698696513,-3.06816885018962,1.6925716819527693e-07,6.969570707124448e-05,-6.897677481095613e-08,0.6829995366437001,1.3863514019233052e-05,9.786209779186471,-0.0731798060567139,-0.9973056761471256,0.0051092377343968,-4.10774862705994,-3.342849375087553e-08,-3.9230086562723385,-2.3503119450651866e-09,0.0657310963393159,2.2081527149830915e-07
1701865305.2610557,-4.10774862705994,-3.9230086562723385,0.0657310963393159,0.0348119058187847,0.0012792872952285,0.9987196650230402,-0.036681403102208,1.403062976809118e-06,-0.0696849064074599,-3.068168850747297,1.6923811670616866e-07,7.00432924688597e-05,-6.925426719117594e-08,0.6829937498690455,1.3822893492819354e-05,9.78621018796779,-0.0731798083799512,-0.9973056761809392,0.0051091978581077,-4.107748660637467,-3.3577527425165954e-08,-3.923008658633533,-2.3611943511525624e-09,0.0657313182504763,2.219111604057078e-07
1701865305.2720733,-4.107748660637467,-3.923008658633533,0.0657313182504763,0.0348116230267751,0.0012792775991541,0.9987196748886548,-0.0366814032087889,1.4044632360921846e-06,-0.0696843401490912,-3.0681688513072087,1.6921825701964715e-07,7.03908818258571e-05,-6.953170749586866e-08,0.6829878287611124,1.3863868248077944e-05,9.78621059858482,-0.0731798107152259,-0.9973056762149172,0.0051091577770341,-4.107748694363862,-3.372639501009189e-08,-3.923008661005597,-2.3720643227420624e-09,0.0657315412575257,2.2300704939637317e-07
1701865305.288113,-4.107748694363862,-3.923008661005597,0.0657315412575257,0.0348113388384682,0.0012792678517552,0.9987196848028996,-0.0366814033160384,1.4058634913127762e-06,-0.0696837710945506,-3.068168851869352,1.6919847029680504e-07,7.073847052098478e-05,-6.98091542157921e-08,0.6829818804593678,1.3904586103584144e-05,9.786211011144433,-0.0731798130625386,-0.9973056762490594,0.0051091174911771,-4.107748728238956,-3.387509384111809e-08,-3.923008663388519,-2.3829218598336865e-09,0.0657317653604644,2.2410293870622766e-07
1701865305.2911775,-4.107748728238956,-3.923008663388519,0.0657317653604644,0.0348110532538772,0.0012792580530352,0.9987196947657728,-0.0366814034239558,1.4072637484329218e-06,-0.0696831992438648,-3.068168852433728,1.6917941794575446e-07,7.108605590476121e-05,-7.008664597130931e-08,0.6829760118811994,1.3863980547531962e-05,9.786211425639417,-0.0731798154218873,-0.9973056762833656,0.0051090770005446,-4.107748762262586,-3.402363013549348e-08,-3.923008665782286,-2.393766962427435e-09,0.0657319905592918,2.251988273915817e-07
1701865305.3044977,-4.107748762262586,-3.923008665782286,0.0657319905592918,0.0348107662729826,0.0012792482029893,0.9987197047772742,-0.0366814035325415,1.4086639990931382e-06,-0.0696826245969944,-3.068168853000337,1.6915933295201365e-07,7.143364617075052e-05,-7.036407247577048e-08,0.682969973315,1.3931918126016602e-05,9.786211841970774,-0.0731798177932731,-0.9973056763178362,0.0051090363051253,-4.107748796434584,-3.4171997675969124e-08,-3.923008668186887,-2.404600962790937e-09,0.0657322168540086,2.262947167985807e-07
1701865305.3115027,-4.107748796434584,-3.923008668186887,0.0657322168540086,0.0348104778958037,0.0012792383016223,0.9987197148374016,-0.0366814036417953,1.410064251604334e-06,-0.0696820471539785,-3.0681688535691785,1.691402785554701e-07,7.178123157249743e-05,-7.064156366715828e-08,0.6829640501332757,1.3891306616878544e-05,9.786212260290162,-0.0731798201766948,-0.9973056763524708,0.0051089954049303,-4.107748830754787,-3.4320202679793965e-08,-3.923008670602308,-2.415421196388934e-09,0.065732444244614,2.2739060540066802e-07
1701865305.331067,-4.107748830754787,-3.923008670602308,0.065732444244614,0.0348101881223247,0.0012792283489305,0.9987197249461548,-0.0366814037517173,1.4114644994363965e-06,-0.0696814669147854,-3.0681688541402528,1.6912041509439517e-07,7.212882093256342e-05,-7.091900266788108e-08,0.6829579926114319,1.3932267945773963e-05,9.786212680445017,-0.0731798225721527,-0.9973056763872696,0.0051089542999508,-4.107748865223026,-3.4468238929719064e-08,-3.9230086730285385,-2.4262303277566843e-09,0.0657326727311083,2.2848649430806667e-07
1701865305.341461,-4.107748865223026,-3.9230086730285385,0.0657326727311083,0.0348098969525482,0.0012792183449141,0.998719735103532,-0.0366814038623072,1.4128647431958403e-06,-0.0696808838794203,-3.0681688547135595,1.6910062582087137e-07,7.247640963151541e-05,-7.119644824480869e-08,0.6829519078102065,1.397300695635918e-05,9.786213102542124,-0.0731798249796458,-0.9973056764222328,0.0051089129901879,-4.107748899839136,-3.46161099784581e-08,-3.9230086754655655,-2.437027024626559e-09,0.0657329023134918,2.2958238349302107e-07
1701865305.3523982,-4.107748899839136,-3.9230086754655655,0.0657329023134918,0.0348096043864874,0.0012792082895766,0.998719745309532,-0.0366814039735652,1.41426498877905e-06,-0.06968029804791,-3.068168855289099,1.6908157059012672e-07,7.28239950146601e-05,-7.147393877008275e-08,0.6829459027550921,1.393238743826634e-05,9.786213526573292,-0.0731798273991742,-0.99730567645736,0.0051088714756492,-4.107748934602954,-3.476381849054633e-08,-3.9230086779133777,-2.4478121751769777e-09,0.0657331329917638,2.3067827199796387e-07
1701865305.3614051,-4.107748934602954,-3.9230086779133777,0.0657331329917638,0.0348093104241227,0.0012791981829132,0.9987197555641536,-0.0366814040854912,1.4156652278595837e-06,-0.069679709420215,-3.0681688558668707,1.6906148245974781e-07,7.317158528098684e-05,-7.175136411403778e-08,0.6829397276578947,1.4000336440556754e-05,9.786213952440407,-0.0731798298307374,-0.9973056764926516,0.0051088297563236,-4.10774896951431,-3.4911355584199555e-08,-3.923008680371961,-2.458583114872681e-09,0.0657333647659249,2.3177416109965154e-07
1701865305.3713188,-4.10774896951431,-3.923008680371961,0.0657333647659249,0.0348090150654736,0.0012791880249287,0.9987197658673954,-0.036681404198085,1.4170654687500871e-06,-0.0696791179963747,-3.068168856446876,1.6904242468201114e-07,7.35191706835283e-05,-7.202885402604016e-08,0.6829336679360487,1.395972516105565e-05,9.78621438029361,-0.0731798322743349,-0.9973056765281072,0.0051087878322222,-4.107749004573042,-3.5058731917558816e-08,-3.9230086828413055,-2.4693447286949777e-09,0.0657335976359745,2.3287004960459434e-07
1701865305.384303,-4.107749004573042,-3.9230086828413055,0.0657335976359745,0.0348087183105206,0.0012791778156183,0.9987197762192568,-0.0366814043113469,1.418465703101949e-06,-0.0696785237763498,-3.068168857029113,1.6902233624175857e-07,7.386676094545059e-05,-7.230627892411906e-08,0.6829274381938637,1.4027682417461386e-05,9.786214809975776,-0.0731798347299672,-0.9973056765637272,0.0051087457033339,-4.10774903977898,-3.5205938608839915e-08,-3.923008685321397,-2.4800912434841393e-09,0.0657338316019131,2.3396593859525971e-07
1701865305.4012115,-4.10774903977898,-3.923008685321397,0.0657338316019131,0.034808420159283,0.0012791675549868,0.9987197866197356,-0.0366814044252764,1.4198659392708534e-06,-0.0696779267601795,-3.068168857613583,1.6900327787850066e-07,7.421434634273337e-05,-7.258376844092725e-08,0.6829213238510612,1.3987050649751071e-05,9.786215241642465,-0.0731798371976323,-0.9973056765995112,0.0051087033696698,-4.107749075131962,-3.535298187529179e-08,-3.923008687812224,-2.4908271001322646e-09,0.0657340666637402,2.3506182710020251e-07
1701865305.4112568,-4.107749075131962,-3.923008687812224,0.0657340666637402,0.034808120611745,0.0012791572430303,0.9987197970688316,-0.0366814045398737,1.4212661706858243e-06,-0.0696773269478319,-3.068168858200285,1.689834101968387e-07,7.456193569894514e-05,-7.286120578194787e-08,0.6829150750624456,1.4028041002470511e-05,9.786215675144865,-0.0731798396773311,-0.9973056766354594,0.005108660831221,-4.107749110631821,-3.549985905237918e-08,-3.9230086903137753,-2.5015514104609338e-09,0.0657343028214559,2.3615771570228983e-07
1701865305.4260836,-4.107749110631821,-3.9230086903137753,0.0657343028214559,0.0348078196679093,0.0012791468797493,0.9987198075665428,-0.0366814046551389,1.4226663979303375e-06,-0.0696767243393125,-3.06816885878922,1.6896361612851288e-07,7.490952439008551e-05,-7.31386496464426e-08,0.6829087990577339,1.40687524704043e-05,9.78621611058724,-0.0731798421690635,-0.997305676671572,0.0051086180879885,-4.10774914627839,-3.5646569251923665e-08,-3.923008692826037,-2.5122615099348877e-09,0.0657345400750606,2.37253604706833e-07
1701865305.4321196,-4.10774914627839,-3.923008692826037,0.0657345400750606,0.0348075173277889,0.0012791364651471,0.998719818112868,-0.0366814047710716,1.4240666269529418e-06,-0.0696761189346478,-3.068168859380388,1.6894455613131797e-07,7.525710977214073e-05,-7.341613844204701e-08,0.6829026026978299,1.4028148640537431e-05,9.786216547964523,-0.0731798446728278,-0.9973056767078486,0.0051085751399801,-4.107749182071506,-3.579311602663893e-08,-3.923008695348999,-2.522962283535435e-09,0.0657347784245535,2.3834949289258667e-07
1701865305.4509284,-4.107749182071506,-3.923008695348999,0.0657347784245535,0.0348072135913645,0.0012791259992191,0.9987198287078064,-0.0366814048876722,1.4254668493954643e-06,-0.0696755107337986,-3.068168859973788,1.689244653321228e-07,7.560470003080591e-05,-7.369356216598108e-08,0.6828962363261802,1.409609539774244e-05,9.786216987174942,-0.0731798471886251,-0.9973056767442896,0.0051085319871846,-4.107749218011001,-3.5939494935632865e-08,-3.923008697882647,-2.533647958102847e-09,0.0657350178699354,2.3944538189712983e-07
1701865305.461142,-4.107749218011001,-3.923008697882647,0.0657350178699354,0.0348069084586552,0.0012791154819699,0.998719839351356,-0.0366814050049402,1.4268670735844607e-06,-0.069674899736804,-3.0681688605694206,1.6890540310057626e-07,7.595228543108668e-05,-7.397105045539162e-08,0.6828899852874964,1.4055484653378457e-05,9.786217428372794,-0.0731798497164539,-0.9973056767808948,0.0051084886296132,-4.10774925409671,-3.608570864344074e-08,-3.92300870042697,-2.544322974529223e-09,0.0657352584112055,2.405412701106391e-07
1701865305.4762688,-4.10774925409671,-3.92300870042697,0.0657352584112055,0.0348066019296454,0.0012791049133957,0.998719850043516,-0.0366814051228757,1.4282672929754748e-06,-0.0696742859436322,-3.068168861167286,1.6888553163466912e-07,7.629987478525423e-05,-7.424848652741473e-08,0.6828835998422983,1.4096453129826116e-05,9.786217871405478,-0.0731798522563142,-0.997305676817664,0.005108445067257,-4.107749290328468,-3.623175803824097e-08,-3.923008702981956,-2.5549860005469327e-09,0.0657355000483641,2.416371586017041e-07
1701865305.4813185,-4.107749290328468,-3.923008702981956,0.0657355000483641,0.0348062940043376,0.001279094293497,0.9987198607842854,-0.0366814052414789,1.429667508151113e-06,-0.0696736693542884,-3.068168861767384,1.6886573462829014e-07,7.664746347706012e-05,-7.452592918536242e-08,0.6828771871313647,1.413718348705374e-05,9.78621831637719,-0.0731798548082062,-0.9973056768545976,0.0051084013001169,-4.107749326706107,-3.6377638679141455e-08,-3.9230087055475913,-2.565635259799137e-09,0.0657357427814114,2.4273304728705813e-07
1701865305.505028,-4.107749326706107,-3.9230087055475913,0.0657357427814114,0.034805984682745,0.0012790836222771,0.998719871573662,-0.0366814053607496,1.4310677250381875e-06,-0.0696730499687994,-3.068168862369714,1.68846671583242e-07,7.69950488566666e-05,-7.480341681715915e-08,0.6828708540829584,1.409657078402118e-05,9.786218763283385,-0.0731798573721287,-0.9973056768916952,0.0051083573282008,-4.107749363229464,-3.6523357671569556e-08,-3.923008708123865,-2.5762738609103053e-09,0.0657359866103468,2.438289354034229e-07
1701865305.5115445,-4.107749363229464,-3.923008708123865,0.0657359866103468,0.034805673964848,0.0012790728997313,0.9987198824116456,-0.0366814054806877,1.4324679352963509e-06,-0.0696724277871259,-3.068168862974276,1.688265762666329e-07,7.734263911697082e-05,-7.508083924576283e-08,0.6828643509985682,1.4164518994335476e-05,9.786219212022711,-0.073179859948082,-0.9973056769289572,0.0051083131514975,-4.1077493998983705,-3.6668906133741075e-08,-3.9230087107107647,-2.5868995834343878e-09,0.065736231535171,2.449248241997992e-07
